ACCELEROMETER X (m/s²),ACCELEROMETER Y (m/s²),ACCELEROMETER Z (m/s²),GRAVITY X (m/s²),GRAVITY Y (m/s²),GRAVITY Z (m/s²),LINEAR ACCELERATION X (m/s²),LINEAR ACCELERATION Y (m/s²),LINEAR ACCELERATION Z (m/s²),GYROSCOPE X (rad/s),GYROSCOPE Y (rad/s),GYROSCOPE Z (rad/s),LIGHT (lux),MAGNETIC FIELD X (μT),MAGNETIC FIELD Y (μT),MAGNETIC FIELD Z (μT),ORIENTATION Z (azimuth °),ORIENTATION X (pitch °),ORIENTATION Y (roll °),PROXIMITY (i),ATMOSPHERIC PRESSURE (hPa),SOUND LEVEL (dB),LOCATION Latitude : ,LOCATION Longitude : ,LOCATION Altitude ( m),LOCATION Altitude-google ( m),LOCATION Altitude-atmospheric pressure ( m),LOCATION Speed ( Kmh),LOCATION Accuracy ( m),LOCATION ORIENTATION (°),Satellites in range,Time since start in ms ,YYYY-MO-DD HH-MI-SS_SSS,,,LABEL_DATA
-0.2932,4.7336,8.4192,-0.2024,4.8899,8.502,-0.0721,0.0741,0.1505,-0.0203,-0.21,0.0286,8.452,-38.01,47.76,-91.56,25.19,-29.92,1.8,5,1006.09,42.179,30.453608,-84.31851,156.79,142.4569661,,0.61,58.7871,82.2,0 / 17,5,2018-04-26 00:40:32:066,,,
-0.5141,4.99,8.1853,-0.1869,4.7567,8.5776,0.293,-0.1493,0.119,-0.4232,-0.0485,-0.0092,7.395,-37.29,49.05,-91.31,24.24,-29,1.25,5,1006.1,42.179,30.453608,-84.31851,156.79,142.4569661,,0.61,58.7871,82.2,0 / 17,105,2018-04-26 00:40:32:166,,,
-0.5511,4.571,9.0921,-0.0825,4.5131,8.7099,0.0945,0.0063,-0.568,-0.2372,-0.0761,-0.0469,7.395,-37.52,49.77,-90.99,24.83,-27.35,1.1,5,1006.1,25.463,30.453608,-84.31851,156.79,142.4569661,,0.61,58.7871,82.2,0 / 17,205,2018-04-26 00:40:32:266,,,
0.0924,4.8263,8.9373,0.3631,4.5712,8.6723,0.2195,0.0019,-0.0379,0.018,-0.3765,0.0201,7.395,-39.48,49.65,-90.26,23.12,-27.98,-1.23,5,1006.1,25.463,30.453608,-84.31851,156.79,142.4569661,,0.61,58.7871,82.2,0 / 17,305,2018-04-26 00:40:32:366,,,
-0.3445,4.8383,8.2872,0.4944,4.3614,8.7732,0.6545,0.2377,0.3064,-0.2845,-0.341,-0.1001,7.395,-41.1,50,-91.1,22.56,-26.4,-3.23,5,1006.1,25.463,30.453608,-84.31851,156.79,142.4569661,,0.61,58.7871,82.2,0 / 17,405,2018-04-26 00:40:32:466,,,
0.7787,4.3676,9.5455,0.2793,4.4473,8.7395,-0.0373,0.2491,0.7452,0.121,-0.0967,-0.881,7.395,-41.82,49.77,-90.56,22.92,-25.53,-3.65,5,1006.09,25.463,30.453608,-84.31851,156.79,142.4569661,,0.61,58.7871,82.2,0 / 17,505,2018-04-26 00:40:32:566,,,
0.7047,4.3495,7.9886,0.3186,4.542,8.6894,-0.7565,0.1056,0.9952,-0.3846,-1.2487,-0.7699,7.395,-42.27,47.44,-89.96,24.72,-27.58,-2.1,5,1006.09,23.55,30.453608,-84.31851,156.79,142.4569661,,0.61,58.7871,82.2,0 / 17,605,2018-04-26 00:40:32:666,,,
0.2631,4.0341,9.5946,0.9379,4.3334,8.7509,-0.9932,0.0286,-0.5887,-0.175,-1.0276,-0.5954,7.395,-47.91,46.5,-86.76,24.9,-25.92,-6.5,5,1006.09,23.55,30.453608,-84.31851,156.79,142.4569661,,0.61,58.7871,82.2,0 / 17,705,2018-04-26 00:40:32:766,,,
0.9304,4.2135,8.2105,0.8689,4.2325,8.8072,0.8033,0.1821,0.0443,-0.2912,-0.7511,-0.7417,6.339,-48.5,44.37,-86.87,26.95,-25.56,-5.63,5,1006.09,23.55,30.453608,-84.31851,156.79,142.4569661,,0.61,58.7871,82.2,0 / 17,805,2018-04-26 00:40:32:866,,,
0.9626,4.0907,9.308,1.5098,4.2759,8.699,0.4595,-0.5358,-0.3653,0.0286,-1.0592,-0.802,6.339,-50.61,43.46,-83.77,27.04,-25.23,-7.61,5,1006.09,24.837,30.453608,-84.31851,156.79,142.4569661,,0.61,58.7871,82.2,0 / 17,905,2018-04-26 00:40:32:966,,,
1.7254,4.5674,9.4963,2.1878,4.903,8.2104,0.6064,-0.2641,-0.6322,0.7331,-0.4051,0.5558,6.339,-52.92,42.5,-83.32,23.86,-26.78,-11.78,5,1006.09,24.837,30.453608,-84.31851,156.79,142.4569661,,0.61,58.7871,82.2,0 / 17,1005,2018-04-26 00:40:33:066,,,
2.2375,5.0478,8.9817,2.2849,5.6282,7.7032,-0.6435,0.1344,0.4925,1.5858,0.4995,0.3338,6.339,-53.41,39.33,-81.57,17.79,-35.01,-16.52,5,1006.09,24.837,30.453608,-84.31851,156.79,142.4569661,,0.61,58.7871,82.2,0 / 17,1105,2018-04-26 00:40:33:166,,,
2.4834,6.076,6.7592,1.8066,6.8862,6.7493,-0.8186,0.9066,0.3436,1.3425,0.2864,-0.3283,6.339,-53.04,36.64,-80.61,17.41,-40.31,-16.59,5,1006.09,36.616,30.453608,-84.31851,156.79,142.4569661,,0.61,58.7871,82.2,0 / 17,1205,2018-04-26 00:40:33:266,,,
2.1957,5.9989,6.0911,1.186,7.1585,6.602,-0.5076,0.8372,0.4796,0.3328,1.5998,0.0087,6.339,-50.34,32.01,-80.97,21.97,-46.86,-10.18,5,1006.09,36.616,30.453608,-84.31851,156.79,142.4569661,,0.61,58.7871,82.2,0 / 17,1305,2018-04-26 00:40:33:366,,,
0.8659,7.2896,6.265,0.3573,7.1593,6.6972,0.0797,-0.135,0.1293,-0.0364,1.0815,0.3561,6.339,-44.66,32.19,-85.16,25.28,-46.87,-3.05,5,1006.09,36.616,30.453608,-84.31851,156.79,142.4569661,,0.61,58.7871,82.2,0 / 17,1405,2018-04-26 00:40:33:466,,,
0.8743,6.3216,6.4209,-0.0287,6.9886,6.8844,1.00E-04,0.1185,0.035,-0.3975,0.613,0.046,6.339,-41.39,33.7,-87.21,25.76,-45.43,0.24,5,1006.1,36.616,30.453608,-84.31851,156.79,142.4569661,,0.61,58.7871,82.2,0 / 17,1505,2018-04-26 00:40:33:566,,,
-0.2204,6.7406,7.0578,-0.6509,6.8015,7.0393,0.8306,0.5066,-0.4168,-0.1026,0.3474,-0.2971,5.282,-39.65,33.15,-87.34,27.28,-44.4,2.01,5,1006.1,28.32,30.453608,-84.31851,156.79,142.4569661,,0.61,58.7871,82.2,0 / 17,1605,2018-04-26 00:40:33:666,,,
-1.2231,6.0435,7.5076,-1.6648,7.3232,6.3116,-0.2425,1.18,-0.2779,0.8817,0.0156,-1.2398,5.282,-36.95,31.08,-87.65,34.71,-44.33,11.35,5,1006.1,28.32,30.453608,-84.31851,156.79,142.4569661,,0.61,58.7871,82.2,0 / 17,1705,2018-04-26 00:40:33:766,,,
-2.3273,6.9212,6.758,-1.243,8.216,5.2143,1.0803,-0.9286,-2.2457,2.8125,-1.836,-0.7319,5.282,-39.44,19.94,-79.74,39.5,-56.88,13.41,5,1006.1,28.32,30.453608,-84.31851,156.79,142.4569661,,0.61,58.7871,82.2,0 / 17,1805,2018-04-26 00:40:33:866,,,
-0.3266,9.1545,7.089,-0.5367,9.4447,2.5972,0.0204,-0.8481,-2.9268,2.5599,-2.1691,-0.1597,5.282,-43.71,11.39,-64.14,45.67,-74.32,11.67,5,1006.1,36.076,30.453608,-84.31851,156.79,142.4569661,,0.61,58.7871,82.2,0 / 17,1905,2018-04-26 00:40:33:966,,,
-0.07,9.5242,5.4482,-0.3289,9.5764,2.1025,-0.7057,0.994,-1.3552,-0.0826,-1.328,-0.4144,5.282,-46,10.03,-57.33,47.22,-77.47,8.89,5,1006.11,36.076,30.453608,-84.31851,156.79,142.4569661,,0.61,58.7871,82.2,0 / 17,2005,2018-04-26 00:40:34:066,,,
-1.5681,9.7758,0.4873,-0.6363,9.2881,3.0923,-1.4239,2.7179,1.0382,-1.304,-0.8332,-0.3748,5.282,-45.04,10.3,-58.63,48.6,-71.23,11.63,5,1006.09,36.076,30.453608,-84.31851,156.79,142.4569661,,0.61,58.7871,82.2,0 / 17,2105,2018-04-26 00:40:34:166,,,
-0.8495,3.8992,2.5023,-1.7006,9.6504,0.4614,-1.9123,1.0331,0.3881,3.0753,-1.5791,-1.362,5.282,-39.74,6.82,-44.07,115.62,-79.65,74.82,0,1006.09,42.462,30.453608,-84.31851,156.79,142.4569661,,0.61,58.7871,82.2,0 / 17,2205,2018-04-26 00:40:34:266,,,
0.3466,8.5971,0.4945,-1.832,9.6345,0.2368,-2.6508,0.1625,0.4266,1.1716,-0.6043,-0.5903,5.282,-36.46,6.96,-40.18,115.22,-79.65,74.82,0,1006.09,42.462,30.453608,-84.31851,156.79,142.4569661,,0.61,58.7871,82.2,0 / 17,2305,2018-04-26 00:40:34:366,,,
-2.9529,10.6499,2.9605,-2.4673,9.4353,1.06,1.6897,-0.7828,-2.4461,-0.3222,-1.5862,-0.5953,5.282,-33.47,5.88,-39.44,111.42,-76.59,73.22,0,1006.1,42.462,30.453608,-84.31851,156.79,142.4569661,,0.61,58.7871,82.2,0 / 17,2405,2018-04-26 00:40:34:466,,,
-3.336,9.5976,2.4016,-2.8249,9.2766,1.4837,2.267,0.3372,1.7138,-0.3627,-1.7982,-1.0298,5.282,-27.68,5.18,-39.4,95.61,-71.02,62.29,0,1006.1,32.209,30.453608,-84.31851,156.79,142.4569661,,0.61,58.7871,82.2,0 / 17,2505,2018-04-26 00:40:34:566,,,
-5.0705,9.039,4.016,-4.3049,8.4312,2.5727,2.6499,2.0431,0.3513,0.08,-2.3901,-2.0771,5.282,-15.13,5.33,-39.53,77.75,-59.25,59.14,0,1006.09,32.209,30.453608,-84.31851,156.79,142.4569661,,0.61,58.7871,82.2,0 / 17,2605,2018-04-26 00:40:34:666,,,
-7.0903,6.2999,2.3848,-4.1972,8.4907,2.555,-1.0061,-0.2267,2.8378,0.6445,-0.9894,-0.0421,5.282,-12.67,6.14,-40.39,73.66,-57.84,57.75,0,1006.1,32.209,30.453608,-84.31851,156.79,142.4569661,,0.61,58.7871,82.2,0 / 17,2705,2018-04-26 00:40:34:766,,,
-3.336,7.829,-0.7338,-3.9806,8.6297,2.4329,0.8962,0.4947,2.3715,0.2942,-1.0846,-0.1491,5.282,-12.94,5.86,-37.44,75.29,-61.6,58.57,0,1006.1,31.375,30.453608,-84.31851,156.79,142.4569661,,0.61,58.7871,82.2,0 / 17,2805,2018-04-26 00:40:34:866,,,
-5.6363,8.9101,0.9635,-3.8832,8.6124,2.6428,1.3913,-0.704,-0.1332,0.2047,-0.8721,-0.1905,5.282,-10.21,7.17,-37.82,68.14,-61.39,55.76,0,1006.1,31.375,30.453608,-84.31851,156.79,142.4569661,,0.61,58.7871,82.2,0 / 17,2905,2018-04-26 00:40:34:966,,,
-4.3781,9.5735,2.7542,-3.776,8.6756,2.5906,-0.4479,0.3435,0.8563,0.1438,-0.0489,0.2463,2.113,-10.5,6.81,-37.27,68.36,-61.39,55.76,0,1006.1,31.375,30.453608,-84.31851,156.79,142.4569661,,0.61,58.7871,82.2,0 / 17,3005,2018-04-26 00:40:35:066,,,
-3.2847,8.3539,1.8103,-2.7492,9.2761,1.6222,-1.3305,-0.6944,1.7541,1.2293,0.3524,1.1359,2.113,-13.41,6.59,-33.5,74.26,-64.84,56.28,0,1006.1,31.375,30.453608,-84.31851,156.79,142.4569661,,0.61,58.7871,82.2,17-Aug,3105,2018-04-26 00:40:35:166,,,
-1.789,9.9636,1.9842,-2.6235,9.3334,1.4968,1.4689,-0.0398,-1.1554,0.3006,-0.5824,-0.2041,2.113,-16.84,8,-30.87,86.06,-73.87,60.9,0,1006.1,51.731,30.453608,-84.31851,156.79,142.4569661,,0.61,58.7871,82.2,17-Aug,3205,2018-04-26 00:40:35:266,,,
-3.6333,8.6621,2.7278,-2.5313,9.3743,1.3966,-0.75,0.6525,0.6446,-0.2385,0.0433,0.0134,2.113,-16.27,8.5,-31.82,83.56,-72.86,61.11,0,1006.11,51.731,30.453608,-84.31851,156.79,142.4569661,,0.61,58.7871,82.2,17-Aug,3305,2018-04-26 00:40:35:366,,,
-2.1877,8.797,1.3665,-2.445,9.3906,1.4406,-0.7674,-0.2164,1.2644,-0.0644,0.061,0.0971,2.113,-16.52,7.65,-31.79,84.79,-73.12,60.4,0,1006.11,51.731,30.453608,-84.31851,156.79,142.4569661,,0.61,58.7871,82.2,17-Aug,3405,2018-04-26 00:40:35:466,,,
-1.7317,9.5771,0.2774,-2.5282,9.3747,1.4,-0.0796,-0.3458,0.0315,0.1013,0.0126,-0.1066,2.113,-16.89,7.79,-33.02,84.73,-72.87,61.02,0,1006.12,49.969,30.453608,-84.31851,156.79,142.4569661,,0.61,58.7871,82.2,17-Aug,3505,2018-04-26 00:40:35:566,,,
-2.6174,8.8066,1.3809,-2.4746,9.4317,1.0751,-0.4471,-0.0647,-0.2173,0.2302,0.2112,0.0244,2.113,-16.42,8.5,-31.21,89.6,-74.04,66.52,0,1006.12,49.969,30.453608,-84.31851,156.79,142.4569661,,0.61,58.7871,82.2,17-Aug,3606,2018-04-26 00:40:35:667,,,
-2.6174,9.2063,1.099,-2.2435,9.5144,0.8246,0.1073,-0.1095,0.0753,0.2998,0.5558,0.3657,2.113,-18.74,7.69,-30.56,97.94,-75.9,69.82,0,1006.12,49.969,30.453608,-84.31851,156.79,142.4569661,,0.61,58.7871,82.2,17-Aug,3705,2018-04-26 00:40:35:766,,,
-2.0372,10.5524,0.0963,-2.0172,9.5953,0.3106,-0.7336,-0.3317,0.2282,0.2885,0.4985,0.2457,2.113,-21.74,8.92,-27.52,110.68,-77.61,75.94,0,1006.11,49.446,30.453608,-84.31851,156.79,142.4569661,,0.61,58.7871,82.2,17-Aug,3805,2018-04-26 00:40:35:866,,,
-1.5132,9.1413,0.0903,-2.2659,9.5432,-0.1687,0.6083,-2.5685,0.4931,0.4909,0.2135,-0.1558,2.113,-22.23,10.3,-26.12,125.92,-78.23,89.08,0,1006.11,49.446,30.453608,-84.31851,156.79,142.4569661,,0.61,58.7871,82.2,17-Aug,3906,2018-04-26 00:40:35:967,,,
-0.1321,8.4611,-0.8201,-2.3191,9.5319,-0.0145,-1.9294,0.3694,0.2449,-0.2146,0.207,0.0686,2.113,-21.31,9.85,-26.01,125.13,-76.33,90.36,0,1006.11,49.446,30.453608,-84.31851,156.79,142.4569661,,0.61,58.7871,82.2,17-Aug,4005,2018-04-26 00:40:36:066,,,
-2.1889,9.6506,0.4345,-2.7088,9.4192,0.4222,0.1938,-0.4221,0.124,-0.2019,-0.0898,-0.4204,2.113,-22.29,9.76,-27.46,126.81,-76.39,91.58,0,1006.1,58.246,30.453608,-84.31851,156.79,142.4569661,,0.61,58.7871,82.2,0 / 17,4105,2018-04-26 00:40:36:166,,,
-0.9569,9.5807,3.00E-04,-3.0347,9.3185,0.439,-2.9511,-0.4998,2.4174,-0.1127,-0.6507,0.174,2.113,-18.08,8.55,-28.79,108,-71.79,81.77,0,1006.1,58.246,30.453608,-84.31851,156.79,142.4569661,,0.61,58.7871,82.2,0 / 17,4205,2018-04-26 00:40:36:266,,,
-2.2712,14.7614,-0.3811,-3.6538,9.0289,1.1687,2.922,-1.9748,-0.3322,-0.5066,-1.8889,-0.737,2.113,-11.09,8.8,-30.9,85.53,-66.98,72.26,0,1006.1,58.246,30.453608,-84.31851,156.79,142.4569661,,0.61,58.7871,82.2,0 / 17,4305,2018-04-26 00:40:36:366,,,
-6.5448,11.0051,1.6255,-5.2792,8.2608,0.3552,1.8896,0.4995,-3.7961,1.7143,-1.6472,-1.5019,1.088,-4.75,12.93,-30.74,74,-61.18,75.22,0,1006.09,58.246,30.453608,-84.31851,156.79,142.4569661,,0.61,58.7871,82.2,0 / 17,4406,2018-04-26 00:40:36:467,,,
-16.9421,8.065,-6.2092,-5.0319,8.4205,-0.1078,-2.1525,-0.0693,3.5776,-0.3066,0.0674,0.494,1.088,2.7,20.06,-25.54,64.63,-59.13,91.23,0,1006.09,57.32,30.453608,-84.31851,156.79,142.4569661,,0.61,58.7871,82.2,0 / 17,4505,2018-04-26 00:40:36:566,,,
-8.6732,10.7907,-0.9569,-4.2643,8.8223,-0.4673,-0.5979,-2.7734,2.2466,0.1959,0.9877,0.9041,1.088,-1.78,16.79,-24.73,76.81,-62.14,90.84,0,1006.1,57.32,30.453608,-84.31851,156.79,142.4569661,,0.61,58.7871,82.2,0 / 17,4606,2018-04-26 00:40:36:667,,,
-3.3635,10.7402,-3.2982,-4.1758,8.8686,-0.3833,0.6187,-0.1976,-0.7445,-0.227,-0.5654,0.9746,1.088,-2.95,15.97,-23.95,84.79,-64.69,95.24,0,1006.08,57.32,30.453608,-84.31851,156.79,142.4569661,,0.61,58.7871,82.2,0 / 17,4705,2018-04-26 00:40:36:766,,,
-4.6217,9.1425,0.5808,-2.7926,9.4005,-0.2614,-1.1054,2.7396,0.131,0.243,-0.7599,1.3582,1.088,-4.82,14.79,-24.16,92.51,-70.75,93.22,0,1006.08,57.396,30.453608,-84.31851,156.79,142.4569661,,0.61,58.7871,82.2,0 / 17,4806,2018-04-26 00:40:36:867,,,
-1.0047,6.8285,-0.8921,-2.2954,9.5332,-0.2916,0.2481,1.171,0.4069,0.0936,-0.4703,0.8564,1.088,-6.06,14.21,-25.99,102.75,-76.36,97.24,0,1006.05,57.396,30.453608,-84.31851,156.79,142.4569661,,0.61,58.7871,82.2,0 / 17,4905,2018-04-26 00:40:36:966,,,
-3.3456,11.7118,-0.9977,-1.7576,9.6413,-0.4382,-0.7172,-0.3739,0.1027,0.0771,-0.2883,0.5217,1.088,-7.51,13.15,-25.53,116.1,-79.36,104,0,1006.05,57.396,30.453608,-84.31851,156.79,142.4569661,,0.61,58.7871,82.2,0 / 17,5005,2018-04-26 00:40:37:066,,,
-1.6708,9.3496,-1.9416,-2.7945,9.3565,-0.9393,-0.9129,0.6903,1.0823,0.3568,0.6184,-1.1002,1.088,-5.26,17.4,-22.78,107.57,-72.51,108.58,0,1006.09,58.026,30.453608,-84.31851,156.79,142.4569661,,0.61,58.7871,82.2,0 / 17,5105,2018-04-26 00:40:37:166,,,
-1.8534,8.6561,-1.9356,-3.2224,9.2166,-0.9518,-0.7138,-1.0364,0.2288,-0.2294,0.456,-0.7222,0.001,-4.83,17.17,-22.63,103.1,-69.97,106.45,0,1006.11,58.026,30.453608,-84.31851,156.79,142.4569661,,0.61,58.7871,82.2,0 / 17,5206,2018-04-26 00:40:37:267,,,
-4.2457,6.4697,1.057,-3.0549,9.1966,-1.5252,2.3689,2.7231,12.4189,0.7571,0.8558,0.1192,0.001,-4.02,18.09,-21.83,93.57,-67.63,102.85,0,1006.48,58.026,30.453608,-84.31851,156.79,142.4569661,,0.61,58.7871,82.2,0 / 17,5308,2018-04-26 00:40:37:369,,,
0.3013,9.0209,-0.2612,-3.0035,9.2389,-1.3628,-0.224,-0.1765,0.7903,-0.1486,0.0948,-0.0372,0.001,-6.4,17.47,-20.3,114.63,-70.35,114.41,0,1006.48,58.026,30.453608,-84.31851,156.79,142.4569661,,0.61,58.7871,82.2,0 / 17,5407,2018-04-26 00:40:37:468,,,
-2.584,9.3123,-1.9872,-3.0059,9.2607,-1.2003,-0.7484,-0.1424,1.1507,-0.1549,-0.0229,-0.0127,0.001,-6.09,18.02,-20.49,112.49,-70.42,113.32,0,1006.53,62.825,30.453608,-84.31851,156.79,142.4569661,,0.61,58.7871,82.2,0 / 17,5506,2018-04-26 00:40:37:567,,,
-2.2987,9.3785,-2.2175,-2.8755,9.329,-0.9678,-0.35,-0.4399,0.3269,-0.0617,-0.5201,0.1592,0.001,-6.92,16.38,-21.46,114.9,-71.25,110.41,0,1006.53,62.825,30.453608,-84.31851,156.79,142.4569661,,0.61,58.7871,82.2,0 / 17,5605,2018-04-26 00:40:37:666,,,
-3.1247,9.4026,-0.4999,-2.7157,9.3891,-0.8406,-0.0281,0.3371,-0.214,-0.0524,-0.4021,0.2821,0.001,-5.81,15.48,-23.09,110.74,-73.15,107.2,0,1006.48,62.825,30.453608,-84.31851,156.79,142.4569661,,0.61,58.7871,82.2,0 / 17,5705,2018-04-26 00:40:37:766,,,
-2.381,8.9246,-0.0165,-2.6125,9.4392,-0.5586,0.2266,0.152,-0.3942,-0.1355,-0.3586,0.0864,0.001,-4.56,14.73,-25.13,103.57,-74.2,102.07,0,1006.42,52.7,30.453608,-84.31851,156.79,142.4569661,,0.61,58.7871,82.2,0 / 17,5805,2018-04-26 00:40:37:866,,,
-4.3877,9.4917,-0.699,-2.6046,9.4508,-0.3657,2.4981,0.9755,0.5773,-0.1778,-0.6759,0.1728,0.001,-4.49,15.71,-25.87,96.81,-74.45,97.99,0,1006.39,52.7,30.453608,-84.31851,156.79,142.4569661,,0.61,58.7871,82.2,0 / 17,5905,2018-04-26 00:40:37:966,,,
-5.0896,8.4671,-0.6594,-2.3479,9.5244,0.0959,2.045,1.009,0.5487,-0.4228,0.0457,0.2658,0.001,-4.02,13.76,-27.14,88.85,-76.14,87.66,0,1006.39,52.7,30.453608,-84.31851,156.79,142.4569661,,0.61,58.7871,82.2,0 / 17,6008,2018-04-26 00:40:38:069,,,
-4.1812,8.6561,-0.3703,-2.1568,9.5662,0.2681,0.8235,0.776,0.1942,-0.3129,0.4794,0.4003,0.001,-6.99,11.94,-28.56,91.21,-77.2,82.91,0,1006.29,54.466,30.453608,-84.31851,156.79,142.4569661,,0.61,58.7871,82.2,0 / 17,6105,2018-04-26 00:40:38:166,,,
-2.9827,9.2003,-0.1592,-1.8338,9.6254,0.4751,1.8864,-1.5644,-0.4159,-0.3089,0.4028,-0.0797,0.001,-7.73,11.26,-28.54,90.65,-78.45,79.53,0,1006.29,54.466,30.453608,-84.31851,156.79,142.4569661,,0.61,58.7871,82.2,0 / 17,6206,2018-04-26 00:40:38:267,,,
-3.7598,10.3429,0.7224,-2.1708,9.5605,0.346,0.0941,-2.3321,-0.7343,-0.0187,0.8616,-0.2638,0.001,-8.29,11.13,-28.81,85.21,-77.81,74.19,0,1006.23,54.466,30.453608,-84.31851,156.79,142.4569661,,0.61,58.7871,82.2,0 / 17,6306,2018-04-26 00:40:38:367,,,
-0.0031,10.2791,0.6744,-2.4841,9.4882,-0.1986,-1.9918,-0.7743,1.2751,0.8087,0.3618,-0.8128,0.001,-8.75,13.05,-25.09,106.79,-75.28,94.57,0,1006.11,54.589,30.453608,-84.31851,156.79,142.4569661,,0.61,58.7871,82.2,0 / 17,6407,2018-04-26 00:40:38:468,,,Out
-1.8021,10.1081,-0.9341,-2.9804,9.2696,-1.1952,-0.9288,0.514,-0.107,0.651,0.5978,-0.4305,0.001,-8.5,16.46,-21.23,119.03,-70.89,111.85,0,1006.11,54.589,30.453608,-84.31851,156.79,142.4569661,,0.61,58.7871,82.2,0 / 17,6505,2018-04-26 00:40:38:566,,,Out
-0.8674,8.697,-1.9464,-2.9079,9.2417,-1.5396,0.0105,3.0241,1.1424,0.2774,0.1973,-0.1521,0.001,-9.51,16.98,-18.43,133.24,-70.4,117.9,0,1006.09,54.589,30.453608,-84.31851,156.79,142.4569661,,0.61,58.7871,82.2,0 / 17,6606,2018-04-26 00:40:38:667,,,Out
-2.6246,6.7635,-2.2391,-3.0071,9.2083,-1.5495,0.9985,2.5569,1.2593,-0.0937,-0.0479,-0.0316,0.001,-9.74,17.01,-19.3,130.87,-69.83,117.26,0,1006.07,54.589,30.453608,-84.31851,156.79,142.4569661,,0.61,58.7871,82.2,0 / 17,6707,2018-04-26 00:40:38:768,,,Out
-3.6655,11.4204,-1.7065,-3.0279,9.1798,-1.6732,-0.2499,-0.8238,1.2824,-0.052,0.2015,-0.0307,0.001,-11.27,17.34,-19.78,133.37,-70.39,117.07,0,1006.07,55.098,30.453608,-84.31851,156.79,142.4569661,,0.61,58.7871,82.2,0 / 17,6805,2018-04-26 00:40:38:866,,,Out
-3.3336,10.3248,-3.9159,-3.0837,9.1274,-1.8488,-1.8165,-0.8723,0.5878,0.0807,-0.3393,0.1664,0.001,-10.07,18.2,-19.38,131.52,-69.35,118.92,0,1006.16,55.098,30.453608,-84.31851,156.79,142.4569661,,0.61,58.7871,82.2,0 / 17,6906,2018-04-26 00:40:38:967,,,Out
-1.931,7.6821,-0.9737,-2.8093,9.2725,-1.5379,-0.6089,1.2227,-1.5736,-0.1531,-0.6444,0.3709,0.001,-9.73,18.08,-18.97,133.55,-69.37,120.48,0,1006.09,55.098,30.453608,-84.31851,156.79,142.4569661,,0.61,58.7871,82.2,0 / 17,7007,2018-04-26 00:40:39:068,,,Out
-2.8263,9.9323,0.0843,-2.6935,9.3317,-1.3789,-0.4012,0.0615,0.0421,-0.1191,-0.4352,0.0732,0.001,-9.37,16.23,-19.98,129.65,-72.03,117.11,0,1006.09,52.955,30.453608,-84.31851,156.79,142.4569661,,0.61,58.7871,82.2,0 / 17,7107,2018-04-26 00:40:39:168,,,Out
-3.675,8.0758,-0.1113,-2.6591,9.4006,-0.8914,-0.0927,-0.2541,-0.2567,-0.4198,-0.1476,0.03,0.001,-8.87,15.48,-22.74,119.9,-73.39,108.53,0,1006.11,52.955,30.453608,-84.31851,156.79,142.4569661,,0.61,58.7871,82.2,0 / 17,7206,2018-04-26 00:40:39:267,,,Out
-2.4383,9.3689,-0.2528,-2.2938,9.5231,-0.5349,1.1621,0.7389,0.8053,-0.2855,-0.0157,0.3092,0.379,-8.53,14.19,-23.38,116.85,-74.77,104.17,0,1006.07,52.955,30.453608,-84.31851,156.79,142.4569661,,0.61,58.7871,82.2,0 / 17,7305,2018-04-26 00:40:39:366,,,Out
-2.584,9.3484,-0.6198,-2.0151,9.5904,-0.446,-0.0187,0.213,0.166,-0.1619,-0.3682,0.3424,0.379,-11.38,12.86,-23.97,121.36,-77.85,102.48,0,1006.07,55.217,30.453608,-84.31851,156.79,142.4569661,,0.61,58.7871,82.2,0 / 17,7405,2018-04-26 00:40:39:466,,,Out
-2.9385,9.1148,-1.4055,-2.2816,9.5406,-0.0844,0.4036,-4.1463,-1.999,-0.5031,0.1051,-0.3597,0.379,-10.55,11.45,-25.42,110.17,-76.54,92.12,0,1005.98,55.217,30.453608,-84.31851,156.79,142.4569661,,0.61,58.7871,82.2,0 / 17,7507,2018-04-26 00:40:39:568,,,Out
-0.0055,11.3626,0.546,-2.5814,9.4541,-0.439,-3.5732,-0.5684,0.0071,0.586,0.0394,-0.5883,0.379,-8.48,13.82,-22.62,109.56,-74.52,99.65,0,1005.98,55.217,30.453608,-84.31851,156.79,142.4569661,,0.61,58.7871,82.2,0 / 17,7606,2018-04-26 00:40:39:667,,,Out
-0.7158,9.7505,-0.7913,-3.164,9.2133,-1.1577,1.8201,-0.3055,0.2319,0.606,0.1653,-0.6339,0.379,-7.13,15.1,-23.59,109.15,-71.96,104.38,0,1006.01,54.436,30.453608,-84.31851,156.79,142.4569661,,0.61,58.7871,82.2,0 / 17,7705,2018-04-26 00:40:39:766,,,Out
-1.3998,8.1035,-2.2331,-3.1139,9.1395,-1.7346,-0.8624,1.6106,0.4024,0.3795,0.134,-0.0373,0.379,-8.51,18.68,-19.19,123.88,-69.17,116.56,0,1006.01,54.436,30.453608,-84.31851,156.79,142.4569661,,0.61,58.7871,82.2,0 / 17,7806,2018-04-26 00:40:39:867,,,Out
-3.2095,6.8237,-2.335,-3.0202,9.1797,-1.6878,0.0579,2.3423,1.3961,-0.0173,0.241,0.0971,0.379,-9.11,17.83,-18.4,129.16,-69.35,119.2,0,1006.05,54.436,30.453608,-84.31851,156.79,142.4569661,,0.61,58.7871,82.2,0 / 17,7905,2018-04-26 00:40:39:966,,,Out
-2.8251,9.7289,-1.457,-3.0165,9.2142,-1.4954,0.0871,-1.7478,1.5545,-0.3371,0.5128,-0.0382,0.946,-9.81,17.73,-19.54,129.37,-69.76,117.51,0,1006.05,51.384,30.453608,-84.31851,156.79,142.4569661,,0.61,58.7871,82.2,0 / 17,8005,2018-04-26 00:40:40:066,,,Out
-3.0639,9.9949,-3.3989,-3.0596,9.148,-1.7858,0.0194,-2.4592,1.5554,0.2537,0.1302,0.0606,0.946,-9.95,17.05,-17.98,134.65,-68.83,120.27,0,1006.11,51.384,30.453608,-84.31851,156.79,142.4569661,,0.61,58.7871,82.2,0 / 17,8106,2018-04-26 00:40:40:167,,,Out
-2.7105,11.465,-2.1539,-2.9909,9.1506,-1.8858,0.3532,1.6644,-2.152,0.2259,-0.3277,0.0282,0.946,-10.36,18.74,-16.72,136.4,-68.87,122.23,0,1006.11,51.384,30.453608,-84.31851,156.79,142.4569661,,0.61,58.7871,82.2,0 / 17,8205,2018-04-26 00:40:40:266,,,Out
-3.4805,10.2466,0.0027,-2.723,9.237,-1.8704,1.2098,-0.9736,-1.8565,-0.1406,0.0869,0.2418,0.946,-10.72,18.78,-18.31,143.74,-70.32,124.49,0,1006,51.384,30.453608,-84.31851,156.79,142.4569661,,0.61,58.7871,82.2,0 / 17,8306,2018-04-26 00:40:40:367,,,Out
-3.952,10.2044,0.1754,-2.6986,9.3368,-1.3334,-2.387,2.3208,0.6617,-0.2214,-0.5564,0.1573,0.946,-10.88,16.85,-18.91,143.82,-71.3,123.8,0,1006.07,67.289,30.453608,-84.31851,156.79,142.4569661,,0.61,58.7871,82.2,0 / 17,8406,2018-04-26 00:40:40:467,,,Out
-0.6621,11.052,-1.8396,-2.4774,9.3581,1.5888,-0.4314,-1.7544,-6.4267,-2.7933,-0.7449,-0.1377,0.946,-9.97,10.36,-29.42,97.61,-75.98,83.44,0,1005.66,67.289,30.453608,-84.31851,156.79,142.4569661,,0.61,58.7871,82.2,0 / 17,8506,2018-04-26 00:40:40:567,,,Out
-4.8628,9.4423,3.0505,-2.0459,9.201,2.7187,-2.2866,-10.2476,2.3062,-2.5938,-2.9072,0.0513,0.946,-8.87,7.15,-38.35,49.31,-69.71,36.96,0,1005.66,67.289,30.453608,-84.31851,156.79,142.4569661,,0.61,58.7871,82.2,0 / 17,8605,2018-04-26 00:40:40:666,,,Out
1.8197,18.8333,13.049,-1.2512,7.8676,5.7247,-2.2661,5.916,4.5286,-1.4239,-2.4111,-0.5407,1.467,-7.03,6.38,-48.09,26.7,-59.66,16.82,2,1005.56,67.378,30.453608,-84.31851,156.79,142.4569661,,0.61,58.7871,82.2,0 / 17,8705,2018-04-26 00:40:40:766,,,Out
0.9662,0.02,0.9239,-0.5689,7.1476,6.6951,-2.1116,7.4717,7.5209,0.0816,-4.2971,-0.272,1.467,-3.61,9.84,-62.29,10.14,-46.77,4.86,2,1005.56,67.378,30.453608,-84.31851,156.79,142.4569661,,0.61,58.7871,82.2,0 / 17,8805,2018-04-26 00:40:40:866,,,Out
2.6672,1.1373,-1.096,3.5033,8.0384,4.3986,-7.0952,5.1571,4.8009,2.0919,-4.3286,1.0143,1.467,-14.04,7.04,-63,331.23,-55.03,-38.54,2,1005.66,67.378,30.453608,-84.31851,156.79,142.4569661,,0.61,58.7871,82.2,0 / 17,8905,2018-04-26 00:40:40:966,,,Out
12.3508,0.9399,1.9494,6.9445,6.7669,1.49,-11.8328,8.383,-4.5088,2.2649,-1.5881,3.1256,1.467,-29.28,4.04,-54.16,302.94,-43.61,-77.89,2,1005.74,45.978,30.453608,-84.31851,156.79,142.4569661,,0.61,58.7871,82.2,0 / 17,9005,2018-04-26 00:40:41:066,,,Out
16.2793,-4.478,11.9587,7.9241,5.7639,-0.4709,-10.3335,11.1453,-14.0368,5.5386,0.7292,2.4657,1.467,-37.3,5.95,-45.58,314.01,-43.61,-77.89,2,1005.74,45.978,30.453608,-84.31851,156.79,142.4569661,,0.61,58.7871,82.2,0 / 17,9105,2018-04-26 00:40:41:166,,,Out
20.837,-7.683,12.2238,9.6258,1.8628,-0.3328,-18.11,13.9535,-3.5771,7.2935,3.5385,3.2469,1.467,-53.16,23.96,-25.94,321.05,-22.71,-98.02,2,1005.81,45.978,30.453608,-84.31851,156.79,142.4569661,,0.61,58.7871,82.2,0 / 17,9205,2018-04-26 00:40:41:266,,,Out
29.3256,-13.828,-3.9555,9.4077,2.52,1.1747,-13.5409,17.2596,17.8351,7.4067,5.3589,-1.915,1.467,-66.81,48.3,-32.09,340.02,-14.89,-82.88,2,1005.81,45.978,30.453608,-84.31851,156.79,142.4569661,,0.61,58.7871,82.2,0 / 17,9306,2018-04-26 00:40:41:367,,,Out
17.9601,-9.5997,-13.1312,6.451,6.161,4.082,-8.047,10.8874,10.4639,4.7319,5.8049,-2.1103,23.242,-68.94,44.62,-46.96,344.94,-27.52,-70.16,2,1005.81,58.005,30.453608,-84.31851,156.79,142.4569661,,0.61,58.7871,82.2,0 / 17,9406,2018-04-26 00:40:41:467,,,Out
14.2333,-4.5984,-6.1936,5.0923,7.0817,4.4894,-9.8797,7.7466,7.2608,2.5589,5.0052,-0.2848,23.242,-63.36,36.06,-68.71,353.73,-46.21,-48.6,2,1005.87,58.005,30.453608,-84.31851,156.79,142.4569661,,0.61,58.7871,82.2,0 / 17,9506,2018-04-26 00:40:41:567,,,
14.8433,8.03,1.6219,2.5202,8.0167,5.0613,-7.8755,-1.1675,2.6324,1.8254,5.5488,0.256,23.242,-46.51,31.77,-84.64,2.45,-54.81,-26.47,2,1005.87,58.005,30.453608,-84.31851,156.79,142.4569661,,0.61,58.7871,82.2,0 / 17,9605,2018-04-26 00:40:41:666,,,
10.0886,8.2997,8.0018,1.7429,7.7741,5.7238,-7.5278,1.0517,0.0715,0.7878,3.6516,0.9382,23.242,-32.78,32.96,-90.28,3.19,-52.42,-16.94,2,1005.93,54.914,30.453608,-84.31851,156.79,142.4569661,,0.61,58.7871,82.2,0 / 17,9706,2018-04-26 00:40:41:767,,,
8.4353,6.2891,6.0383,2.5578,6.7572,6.6358,-1.5024,-1.6727,1.5122,-1.8152,0.8133,3.4599,23.242,-29.07,35.3,-92,356.24,-43.54,-21.08,2,1005.98,54.914,30.453608,-84.31851,156.79,142.4569661,,0.61,58.7871,82.2,0 / 17,9806,2018-04-26 00:40:41:867,,,
4.8911,6.6371,5.6197,2.428,6.0067,7.3662,-1.374,0.0849,2.3971,-0.0428,1.4878,0.9119,23.242,-28.1,43.93,-94.69,351.42,-34.79,-24.49,2,1006,54.914,30.453608,-84.31851,156.79,142.4569661,,0.61,58.7871,82.2,0 / 17,9906,2018-04-26 00:40:41:967,,,
2.7102,5.9749,2.8874,1.57,6.6867,7.0042,-0.0863,-2.8033,4.3426,1.0003,1.8722,0.3025,23.242,-16.55,36.8,-93.53,357.53,-42.97,-12.63,2,1006,52.047,30.453608,-84.31851,156.79,142.4569661,,0.61,58.7871,82.2,0 / 17,10008,2018-04-26 00:40:42:069,,,
1.3362,9.6337,2.6571,1.1125,6.4588,7.2995,0.6329,-3.474,2.0911,-0.7322,0.8204,0.3879,23.242,-13.81,37.7,-90.7,0.52,-44.01,-8.23,2,1006.01,52.047,30.453608,-84.31851,156.79,142.4569661,,0.61,58.7871,82.2,0 / 17,10107,2018-04-26 00:40:42:168,,,
0.2595,9.9745,5.7372,1.5932,5.6875,7.8327,0.9104,-1.3183,1.9075,-1.1745,-0.6213,-0.3384,51.765,-15.91,40.35,-93.53,358.03,-38.55,-11.54,2,1006.01,52.047,30.453608,-84.31851,156.79,142.4569661,,0.61,58.7871,82.2,0 / 17,10206,2018-04-26 00:40:42:267,,,
1.5559,7.2198,5.6353,1.9325,5.5608,7.8472,-2.1678,0.6346,1.6276,-0.7106,-1.4268,0.2005,51.765,-19.57,45.03,-93.39,358.23,-34.53,-13.83,2,1006.03,45.28,30.453608,-84.31851,156.79,142.4569661,,0.61,58.7871,82.2,0 / 17,10305,2018-04-26 00:40:42:366,,,
3.2211,8.0397,11.485,2.5764,6.4555,6.9228,2.709,1.3012,2.6137,1.5106,-0.4981,-0.6715,51.765,-23.72,41.09,-93.25,353.94,-41.15,-20.41,2,1006.03,45.28,30.453608,-84.31851,156.79,142.4569661,,0.61,58.7871,82.2,0 / 17,10405,2018-04-26 00:40:42:466,,,
-0.2479,5.0358,4.5222,3.2778,5.9443,7.0822,-0.3355,0.9613,1.045,-0.9874,-0.8485,0.0207,51.765,-28.56,42.22,-94.74,351.69,-37.3,-24.84,2,1006.03,45.28,30.453608,-84.31851,156.79,142.4569661,,0.61,58.7871,82.2,0 / 17,10505,2018-04-26 00:40:42:566,,,
4.5163,5.4849,8.0809,3.4744,4.9739,7.7088,-2.1181,-1.7953,-1.6795,-1.1402,-0.078,0.689,51.765,-30.95,47.34,-93.69,351.39,-34.12,-26.5,2,1006.03,45.28,30.453608,-84.31851,156.79,142.4569661,,0.61,58.7871,82.2,0 / 17,10607,2018-04-26 00:40:42:668,,,
7.2261,6.9296,10.4295,1.9942,3.4445,8.9663,-4.0962,-1.2706,-0.318,-1.6266,0.6853,-0.1573,51.765,-24.55,51.48,-94.09,356.47,-29.22,-18.24,2,1006,54.803,30.453608,-84.31851,156.79,142.4569661,,0.61,58.7871,82.2,0 / 17,10705,2018-04-26 00:40:42:766,,,
-0.1249,0.9651,12.9579,1.3032,2.9592,9.2618,0.0804,1.7196,-0.4472,0.6366,-0.0927,0.0911,51.765,-19.96,60.35,-93.79,4.45,-17.56,-8.01,2,1006,54.803,30.453608,-84.31851,156.79,142.4569661,,0.61,58.7871,82.2,0 / 17,10805,2018-04-26 00:40:42:866,,,
0.959,1.2072,10.7137,0.9371,3.387,9.1589,0.68,2.0304,-1.5403,0.2213,0.5098,-0.1235,27.467,-19.26,59.65,-94.2,3.27,-19.14,-8.42,2,1006.02,54.803,30.453608,-84.31851,156.79,142.4569661,,0.61,58.7871,82.2,0 / 17,10905,2018-04-26 00:40:42:966,,,
1.8758,2.3918,7.5844,0.4741,3.6533,9.092,-1.2788,1.2374,1.9825,0.3585,0.5951,-0.4456,27.467,-16.22,56.99,-93.4,7.23,-21.86,-2.99,2,1006.03,55.221,30.453608,-84.31851,156.79,142.4569661,,0.61,58.7871,82.2,0 / 17,11006,2018-04-26 00:40:43:067,,,
1.6347,2.617,7.0434,-0.0135,3.7574,9.0619,-0.8043,0.0104,0.8333,0.0069,0.2004,-0.5644,27.467,-15.27,57.09,-93.43,9.73,-22.52,0.09,2,1006.03,55.221,30.453608,-84.31851,156.79,142.4569661,,0.61,58.7871,82.2,0 / 17,11105,2018-04-26 00:40:43:166,,,
0.8898,4.7131,9.6834,0.0978,3.5191,9.1565,0.2099,-1.7681,-2.6722,-0.7798,-0.2491,-0.4503,27.467,-16.02,58.36,-93.72,9.68,-21.02,-0.61,2,1006.04,55.221,30.453608,-84.31851,156.79,142.4569661,,0.61,58.7871,82.2,0 / 17,11206,2018-04-26 00:40:43:267,,,
-0.1201,5.4897,11.1503,-0.0109,3.2764,9.2467,0.588,-1.7911,0.3256,0.0031,-0.1003,-0.4362,27.467,-17.96,61.47,-93.17,11.56,-19.51,0.07,2,1006.05,57.085,30.453608,-84.31851,156.79,142.4569661,,0.61,58.7871,82.2,0 / 17,11305,2018-04-26 00:40:43:366,,,
-1.3067,4.683,8.5223,0.1381,3.1415,9.2924,1.297,-1.193,0.1399,-0.1317,-0.3378,-0.0558,27.467,-17.97,61.77,-93.06,11.91,-19.46,0.52,2,1006.05,57.085,30.453608,-84.31851,156.79,142.4569661,,0.61,58.7871,82.2,0 / 17,11405,2018-04-26 00:40:43:466,,,
-1.1372,4.0762,10.0948,0.1894,3.0354,9.3267,0.5157,-0.6801,1.2544,-0.0648,0.1392,-0.0499,27.467,-19.95,62.91,-93.78,11.47,-18.02,-1.16,2,1006.06,57.085,30.453608,-84.31851,156.79,142.4569661,,0.61,58.7871,82.2,0 / 17,11505,2018-04-26 00:40:43:566,,,
-0.4317,3.6825,8.1865,-0.3984,2.6881,9.4261,0.131,-1.1532,0.3789,-0.3955,0.5647,-0.1579,11.621,-18.21,63.33,-93.44,11.76,-17.51,0.2,2,1006.07,55.024,30.453608,-84.31851,156.79,142.4569661,,0.61,58.7871,82.2,0 / 17,11605,2018-04-26 00:40:43:666,,,
-0.8722,3.5838,9.3272,-0.5259,2.5616,9.455,0.7804,-0.6021,-0.0303,-0.0771,-0.1662,0.1704,11.621,-16.66,65.45,-93.41,14.32,-15.14,3.18,2,1006.07,55.024,30.453608,-84.31851,156.79,142.4569661,,0.61,58.7871,82.2,0 / 17,11705,2018-04-26 00:40:43:766,,,
-1.0751,3.2455,9.8453,-0.0682,2.7119,9.4275,-0.3407,-1.0877,-0.418,0.1082,-0.3749,0.2342,11.621,-18.28,65.11,-92.99,11.96,-16.05,0.41,2,1006.07,55.024,30.453608,-84.31851,156.79,142.4569661,,0.61,58.7871,82.2,0 / 17,11805,2018-04-26 00:40:43:866,,,
-0.3851,3.1949,9.6342,-0.1969,3.1504,9.2883,0.0946,0.1337,-0.0724,0.3824,0.0162,-0.5801,11.621,-18.71,63,-94.02,12.61,-17.69,0.49,2,1006.07,55.024,30.453608,-84.31851,156.79,142.4569661,,0.61,58.7871,82.2,0 / 17,11905,2018-04-26 00:40:43:966,,,
-0.335,2.9686,9.4795,-0.3699,3.229,9.256,0.6449,0.5055,-0.628,0.2229,0.095,-0.247,11.621,4.88,12.11,-45.43,353.04,-19.22,2.29,2,1006.07,54.319,30.453608,-84.31851,156.79,142.4569661,,0.61,58.7871,82.2,0 / 17,12005,2018-04-26 00:40:44:066,,,
-0.2598,2.9023,9.2996,-0.3221,3.5467,9.1407,-0.2712,0.442,0.2245,0.3333,-0.134,0.0298,11.621,3.59,10.42,-47.64,355.49,-20.13,2.33,2,1006.06,54.319,30.453608,-84.31851,156.79,142.4569661,,0.61,58.7871,82.2,0 / 17,12106,2018-04-26 00:40:44:167,,,
-0.3254,3.0637,9.4483,-0.3028,3.6784,9.0892,-0.2117,0.4476,-0.5586,0.2337,6.00E-04,-0.3029,11.621,3.16,9.54,-45.57,356.84,-22.02,1.91,2,1006.06,54.319,30.453608,-84.31851,156.79,142.4569661,,0.61,58.7871,82.2,0 / 17,12205,2018-04-26 00:40:44:266,,,
-0.415,3.0396,9.5622,-0.6552,3.8686,8.9911,-0.4097,0.8677,-0.0112,0.2047,0.1747,-0.3933,11.621,3.71,9.06,-46.14,356.28,-22.67,2.87,2,1006.07,52.84,30.453608,-84.31851,156.79,142.4569661,,0.61,58.7871,82.2,0 / 17,12305,2018-04-26 00:40:44:366,,,
-0.3469,2.9818,9.1065,-0.7062,3.9327,8.9594,-0.8928,0.4508,-0.0042,0.0109,-0.0668,-0.2182,11.621,4.68,8.34,-45.98,356.97,-23.63,4.51,2,1006.06,52.84,30.453608,-84.31851,156.79,142.4569661,,0.61,58.7871,82.2,0 / 17,12406,2018-04-26 00:40:44:467,,,
-0.2013,3.2479,8.9517,-0.9355,3.7549,9.0145,-0.5102,0.9256,0.6956,-0.2838,0.0981,-0.6565,11.621,3.62,10.03,-45.56,1.64,-22.5,5.93,2,1006.06,52.84,30.453608,-84.31851,156.79,142.4569661,,0.61,58.7871,82.2,0 / 17,12505,2018-04-26 00:40:44:566,,,
-0.8972,2.4605,8.5499,-1.063,3.2432,9.1972,-0.0976,0.7616,-0.4404,-0.4526,-0.1459,-0.5896,11.621,3.96,10.07,-46.11,3.61,-20.64,6.97,2,1006.06,54.633,30.453608,-84.31851,156.79,142.4569661,,0.61,58.7871,82.2,0 / 17,12605,2018-04-26 00:40:44:666,,,
-1.0274,2.5159,9.633,-0.9507,3.2341,9.2126,-0.3183,0.8602,-0.1934,0.0596,-0.2942,-0.9132,11.621,1.51,11.57,-45.71,5.89,-19.25,5.89,2,1006.07,54.633,30.453608,-84.31851,156.79,142.4569661,,0.61,58.7871,82.2,0 / 17,12705,2018-04-26 00:40:44:766,,,
-0.4257,2.5809,9.9773,-1.2762,3.1985,9.1857,-0.932,0.6051,-0.5532,0.1548,-0.1482,-1.5255,11.621,-1.18,10.99,-46.13,13.83,-19.05,6.53,2,1006.07,54.633,30.453608,-84.31851,156.79,142.4569661,,0.61,58.7871,82.2,0 / 17,12805,2018-04-26 00:40:44:866,,,
-0.3589,2.5833,9.9137,-1.3995,3.2744,9.1409,-1.383,0.7482,-0.2575,0.3035,-0.4473,-1.9649,11.621,-3.09,8.42,-46.17,23.75,-19.5,8.7,2,1006.07,58.654,30.453608,-84.31851,156.79,142.4569661,,0.61,58.7871,82.2,0 / 17,12905,2018-04-26 00:40:44:966,,,
0.0136,2.3425,9.9017,-1.5232,3.0277,9.2059,-0.8604,1.4185,-1.2736,0.0365,-0.6138,-2.0944,11.621,-5,7.45,-46.79,30.71,-18.87,9.49,2,1006.07,58.654,30.453608,-84.31851,156.79,142.4569661,,0.61,58.7871,82.2,0 / 17,13005,2018-04-26 00:40:45:066,,,
-0.6919,1.5659,10.601,-1.4735,3.0711,9.1996,-1.0376,0.6707,0.1817,0.4174,-0.6462,-2.202,11.621,-10.59,3.05,-45.31,47.95,-18.24,9.1,2,1006.07,58.654,30.453608,-84.31851,156.79,142.4569661,,0.61,58.7871,82.2,0 / 17,13105,2018-04-26 00:40:45:166,,,
-0.9104,2.3521,8.6663,-1.7825,2.6405,9.2783,-1.1237,0.0697,0.5281,-0.2532,-0.4106,-1.9669,11.621,-13.01,0.43,-43.22,62.85,-15.61,10.87,2,1006.07,58.654,30.453608,-84.31851,156.79,142.4569661,,0.61,58.7871,82.2,0 / 17,13206,2018-04-26 00:40:45:267,,,
-1.0142,2.5387,9.326,-1.8912,2.1367,9.3858,0.5388,-1.2191,-1.6649,-0.0804,-0.2543,-1.5761,11.621,-13.21,-1.48,-44.7,67.45,-13.64,11,2,1006.08,52.994,30.453608,-84.31851,156.79,142.4569661,,0.61,58.7871,82.2,0 / 17,13306,2018-04-26 00:40:45:367,,,
-2.1506,3.2226,12.9483,-1.3518,2.131,9.4799,0.683,-1.1343,-3.3613,0.312,-1.1299,-0.4108,11.621,-14.86,-2.38,-43.58,71.49,-12.55,8.12,2,1006.08,52.994,30.453608,-84.31851,156.79,142.4569661,,0.61,58.7871,82.2,0 / 17,13406,2018-04-26 00:40:45:467,,,
-1.5037,3.0962,12.1926,-1.009,2.9079,9.3146,1.2105,0.126,-1.1719,0.8765,-0.4671,-1.4432,11.621,-18.59,-8.63,-41.19,82.95,-17.24,6.18,2,1006.08,52.994,30.453608,-84.31851,156.79,142.4569661,,0.61,58.7871,82.2,0 / 17,13506,2018-04-26 00:40:45:567,,,
-1.7699,2.9529,10.186,-3.1658,3.9472,8.4043,-1.7708,0.8991,2.3799,1.4774,1.1632,-2.6234,11.621,-12.34,-20.32,-39.26,106.61,-21.18,9.71,2,1006.08,36.838,30.453608,-84.31851,156.79,142.4569661,,0.61,58.7871,82.2,0 / 17,13606,2018-04-26 00:40:45:667,,,
-2.6114,1.6117,3.7234,-4.1034,3.9865,7.9691,1.3045,2.0597,4.8102,0.5871,-1.6215,-0.2431,11.621,-6.02,-23.34,-39.53,109.15,-23.73,20.64,2,1006.08,36.838,30.453608,-84.31851,156.79,142.4569661,,0.61,58.7871,82.2,0 / 17,13705,2018-04-26 00:40:45:766,,,
-4.9929,2.021,3.4355,-0.8904,4.4491,8.6977,0.9891,-0.4569,-3.9409,0.243,-3.5595,1.4738,47.54,-14.72,-27.31,-35.59,113.2,-26.76,14.99,2,1006.08,36.838,30.453608,-84.31851,156.79,142.4569661,,0.61,58.7871,82.2,0 / 17,13805,2018-04-26 00:40:45:866,,,
0.0148,5.781,9.5599,-1.4588,4.4352,8.6277,-1.575,-1.4416,1.3991,0.0618,0.1101,-0.4282,47.54,-15.48,-26.1,-35.12,112.92,-26.88,9.6,2,1006.07,48.986,30.453608,-84.31851,156.79,142.4569661,,0.61,58.7871,82.2,0 / 17,13906,2018-04-26 00:40:45:967,,,
0.1688,6.0266,7.4824,-1.031,4.1872,8.8114,-1.0016,-1.2426,-3.4681,-0.492,-0.8485,-0.4536,47.54,-16.28,-25.24,-35.26,113.22,-25.27,6.67,2,1006.07,48.986,30.453608,-84.31851,156.79,142.4569661,,0.61,58.7871,82.2,0 / 17,14005,2018-04-26 00:40:46:066,,,
0.3609,4.1557,7.8267,-0.6279,4.8957,8.4778,-0.4819,1.2187,1.094,0.7154,-0.6999,-0.5463,47.54,-16.1,-27.93,-34,114.51,-29.01,6.25,2,1006.07,48.986,30.453457,-84.31882,287.91,142.4569661,,0,27.664516,,0 / 17,14105,2018-04-26 00:40:46:166,,,
-0.2264,3.644,7.4956,-0.5326,4.7317,8.5769,-0.2748,2.1788,1.2241,-0.4097,-0.246,-0.2362,47.54,-17.58,-30.13,-31.98,119.77,-28.84,3.55,2,1006.07,45.997,30.453457,-84.31882,287.91,142.4569661,,0,27.664516,,0 / 17,14206,2018-04-26 00:40:46:267,,,
-0.0282,3.2094,8.2992,-0.1463,4.7359,8.5899,0.2161,1.261,0.5091,0.2149,-0.6201,-0.22,47.54,-18.16,-30.27,-31.23,121.73,-28.87,0.98,2,1006.07,45.997,30.453457,-84.31882,287.91,142.4569661,,0,27.664516,,0 / 17,14306,2018-04-26 00:40:46:367,,,
-0.5582,3.5079,8.4948,0.0221,4.6771,8.6233,0.3647,-0.4939,-0.7951,0.016,-0.2263,0.1947,47.54,-18.79,-29.88,-31.28,120.42,-28.87,0.98,2,1006.06,45.997,30.453457,-84.31882,287.91,142.4569661,,0,27.664516,,0 / 17,14406,2018-04-26 00:40:46:467,,,
-0.0175,4.7793,9.2708,-0.2558,4.7822,8.5616,0.6931,-0.5015,-0.4769,0.1559,0.4376,-0.0429,46.483,-18.64,-30.3,-30.93,121.25,-28.66,-0.41,2,1006.06,45.997,30.453457,-84.31882,287.91,142.4569661,,0,27.664516,,0 / 17,14505,2018-04-26 00:40:46:566,,,
-1.4344,5.0249,9.8561,-0.1673,4.7439,8.5851,1.6538,-0.6777,-1.497,-0.0085,0.2218,0.2304,46.483,-18.47,-29.38,-31.42,119.6,-28.92,1.12,2,1006.06,36.645,30.453457,-84.31882,287.91,142.4569661,,0,27.664516,,0 / 17,14606,2018-04-26 00:40:46:667,,,
-2.2235,5.0948,9.5419,-0.2245,4.5542,8.6859,0.4822,-1.1316,-1.2092,-0.2525,0.3668,0.5325,46.483,-19.64,-27.07,-32.1,114.08,-27.66,1.48,2,1006.06,36.645,30.453457,-84.31882,287.91,142.4569661,,0,27.664516,,0 / 17,14706,2018-04-26 00:40:46:767,,,
-0.2085,5.2188,8.436,0.4159,4.9228,8.4752,-0.1897,0.485,1.5169,0.4564,-0.2473,0.728,46.483,-20.42,-27.62,-33.3,114.14,-28.39,-0.2,2,1006.06,36.645,30.453457,-84.31882,287.91,142.4569661,,0,27.664516,,0 / 17,14806,2018-04-26 00:40:46:867,,,
0.5555,4.8504,7.3505,0.4631,5.0465,8.3997,0.4434,0.6142,-0.1309,0.2423,0.3677,-0.0692,46.483,-22.46,-26.39,-30.3,107.14,-30.96,-3.16,2,1006.07,39.435,30.453457,-84.31882,287.91,142.4569661,,0,27.664516,,0 / 17,14905,2018-04-26 00:40:46:966,,,
-1.216,3.9377,8.8954,0.1888,5.29,8.2593,1.2222,0.7216,-1.2132,0.1666,0.2019,-0.1798,46.483,-21.86,-28.25,-31,107.22,-32.63,-1.31,2,1006.07,39.435,30.453457,-84.31882,287.91,142.4569661,,0,27.664516,,0 / 17,15007,2018-04-26 00:40:47:068,,,
-0.9426,4.1822,9.6498,0.2419,5.5024,8.1179,1.2609,1.369,0.118,0.1586,0.1816,-0.1736,46.483,-22.72,-30.01,-29.93,109.06,-34.12,-1.71,2,1006.06,39.435,30.453457,-84.31882,287.91,142.4569661,,0,27.664516,,0 / 17,15106,2018-04-26 00:40:47:167,,,
-1.1252,2.8433,9.5431,0.0931,5.4003,8.1893,0.5522,2.3975,-1.3862,-0.2713,0.3887,0.1238,23.242,-20.59,-28.71,-31.7,106.76,-33.77,0.22,2,1006.06,50.764,30.453457,-84.31882,287.91,142.4569661,,0,27.664516,,0 / 17,15206,2018-04-26 00:40:47:267,,,
0.0577,3.8354,9.5011,0.0117,5.5112,8.1156,0.9334,2.2384,0.701,0.1401,0.526,0.0905,23.242,-22.58,-29.01,-29.08,106.79,-35.06,-2.04,2,1006.05,50.764,30.453457,-84.31882,287.91,142.4569661,,0,27.664516,,0 / 17,15305,2018-04-26 00:40:47:366,,,
-0.2037,4.3302,8.6783,-0.0984,5.0458,8.4123,-0.1491,0.7152,-2.0423,-0.2896,0.5013,0.5599,23.242,-21.01,-26.02,-32.35,105.59,-30.95,0.67,2,1006.05,50.764,30.453457,-84.31882,287.91,142.4569661,,0,27.664516,,0 / 17,15405,2018-04-26 00:40:47:466,,,
-0.4412,3.9727,9.4171,-0.352,5.1409,8.3477,-0.2317,0.8479,-2.6826,0.1166,0.5778,0.5403,23.242,-21.43,-24.66,-33.04,101.48,-31.36,1.13,2,1006.06,47.087,30.453457,-84.31882,287.91,142.4569661,,0,27.664516,,0 / 17,15505,2018-04-26 00:40:47:566,,,
-1.6624,4.022,8.8942,-0.5964,5.4446,8.1386,0.8431,1.0889,-0.04,0.2243,0.8232,0.6571,23.242,-19.62,-25.76,-33.91,99.17,-33.71,4.19,2,1006.05,47.087,30.453457,-84.31882,287.91,142.4569661,,0,27.664516,,0 / 17,15605,2018-04-26 00:40:47:666,,,
-0.6155,5.0237,8.6747,-0.8546,5.3922,8.1504,1.6144,0.7569,-1.0426,-0.3882,0.745,0.6483,23.242,-19.34,-23.35,-35.53,91.57,-33.34,5.99,2,1006.05,47.087,30.453457,-84.31882,287.91,142.4569661,,0,27.664516,,0 / 17,15705,2018-04-26 00:40:47:766,,,
-2.5303,4.5614,9.3332,-1.2238,5.4806,8.0437,0.3363,-2.3621,-0.0544,-0.3658,1.1111,0.6888,23.242,-18.48,-22.11,-35.43,91.06,-33.96,8.65,2,1006.06,47.087,30.453457,-84.31882,287.91,142.4569661,,0,27.664516,,0 / 17,15806,2018-04-26 00:40:47:867,,,
-1.4965,8.5068,8.3244,-1.6858,5.1343,8.1873,-0.2858,-4.7032,3.3376,-0.4785,1.1577,0.8358,23.242,-15.19,-19.26,-39.29,80.05,-33.38,10.18,2,1006.06,44.454,30.453457,-84.31882,287.91,142.4569661,,0,27.664516,,0 / 17,15905,2018-04-26 00:40:47:966,,,
-2.3417,3.1901,4.8209,0.1515,5.9722,7.7812,1.2788,2.3649,4.0535,1.0294,-0.5096,2.0258,10.564,-18.17,-14.71,-38.98,72.28,-32.51,6.4,2,1006.06,44.454,30.453457,-84.31882,287.91,142.4569661,,0,27.664516,,0 / 17,16007,2018-04-26 00:40:48:068,,,
-0.6848,3.1359,4.7333,2.0119,6.4808,7.0843,-2.4851,1.1021,-0.7399,1.8178,-1.9452,1.6423,10.564,-29.73,-15.72,-32.01,55.67,-41.35,-15.85,2,1006.06,44.454,30.453457,-84.31882,287.91,142.4569661,,0,27.664516,,0 / 17,16105,2018-04-26 00:40:48:166,,,
4.9473,5.5125,7.6132,2.2498,8.1366,4.9971,-2.6159,-1.6864,-4.7416,2.5807,0.9463,-0.0489,10.564,-31.48,-19.27,-28.1,47.81,-47.7,-23.86,2,1006.07,48.507,30.453457,-84.31882,287.91,142.4569661,,0,27.664516,,0 / 17,16206,2018-04-26 00:40:48:267,,,
3.4706,9.9239,9.1568,1.712,8.8431,3.8864,0.7992,0.0922,-1.0271,2.6284,2.9394,0.6149,10.564,-25.05,-26.69,-28.51,27.69,-64.35,-23.77,2,1006.07,48.507,30.453457,-84.31882,287.91,142.4569661,,0,27.664516,,0 / 17,16306,2018-04-26 00:40:48:367,,,
-1.8594,12.1163,2.0981,2.1186,9.3697,1.9893,1.4389,-1.55,1.5019,2.1464,1.387,1.0986,10.564,-22.11,-31.22,-26.43,350.44,-72.77,-46.8,2,1006.06,48.507,30.453457,-84.31882,287.91,142.4569661,,0,27.664516,,0 / 17,16406,2018-04-26 00:40:48:467,,,
0.8934,9.1269,1.087,-0.9286,9.2694,3.0744,-0.7692,3.5363,0.7053,-1.0482,2.421,-2.1463,10.564,-11.69,-32.28,-31.37,55.06,-70.89,16.81,2,1006.06,56.061,30.453457,-84.31882,287.91,142.4569661,,0,27.664516,,0 / 17,16505,2018-04-26 00:40:48:566,,,
-1.6409,7.2499,4.0052,-3.2372,8.9675,2.3108,-2.1166,0.5328,-1.5976,2.0017,0.8811,-2.4267,10.564,1.12,-32.75,-32.12,80.29,-66.08,54.48,2,1006.06,56.061,30.453457,-84.31882,287.91,142.4569661,,0,27.664516,,0 / 17,16605,2018-04-26 00:40:48:666,,,
-0.8913,8.2215,1.9566,-6.4949,7.3318,-0.5459,-3.3209,1.0284,-1.3231,2.6496,0.4831,-3.1129,9.508,15.66,-37.74,-22.84,92.46,-61.41,80.04,2,1006.06,56.061,30.453457,-84.31882,287.91,142.4569661,,0,27.664516,,0 / 17,16705,2018-04-26 00:40:48:766,,,
-17.3397,5.2874,-2.6277,-7.4112,6.2653,-1.4344,2.8292,0.2659,-4.0741,-0.392,-1.1487,-0.8272,9.508,26.51,-34.23,-16.44,118.2,-39.69,100.95,0,1006.06,58.048,30.453457,-84.31882,287.91,142.4569661,,0,27.664516,,0 / 17,16805,2018-04-26 00:40:48:866,,,
-10.5258,2.1571,-1.4594,-6.8851,6.9558,0.6698,-0.3872,-0.2261,-0.964,-1.2893,-1.3487,1.3068,9.508,24.04,-34.26,-19.9,117.74,-40.22,93.19,0,1006.06,58.048,30.453457,-84.31882,287.91,142.4569661,,0,27.664516,,0 / 17,16905,2018-04-26 00:40:48:966,,,
-6.5114,7.1981,1.6927,-5.8757,7.8005,0.9299,0.433,0.604,-0.9836,-0.4651,-0.4524,1.3977,9.508,19.92,-34.49,-25.29,100.66,-50.71,84.73,0,1006.07,58.048,30.453457,-84.31882,287.91,142.4569661,,0,27.664516,,0 / 17,17006,2018-04-26 00:40:49:067,,,
-6.6343,6.3493,2.1149,-5.7524,7.8348,1.3276,0.4983,1.0389,-1.209,-0.971,0.6066,0.3031,9.508,17.79,-33.79,-27.71,93.51,-53,77,2,1006.08,58.048,30.453457,-84.31882,287.91,142.4569661,,0,27.664516,,0 / 17,17105,2018-04-26 00:40:49:166,,,
-6.3108,7.3257,2.001,-5.6585,7.8292,1.7088,-0.1104,0.1693,0.2168,-1.1407,0.9532,0.2925,9.508,18.7,-30.27,-29.96,81.76,-52.95,73.2,2,1006.08,56.336,30.453457,-84.31882,287.91,142.4569661,,0,27.664516,,0 / 17,17206,2018-04-26 00:40:49:267,,,
-5.0084,7.6821,-1.9116,-5.411,8.034,1.553,1.2108,-0.01,0.0391,0.1584,-0.2173,0.367,9.508,18.64,-30.01,-30.11,79.16,-54.98,73.99,2,1006.08,56.336,30.453457,-84.31882,287.91,142.4569661,,0,27.664516,,0 / 17,17305,2018-04-26 00:40:49:366,,,
-6.5806,8.0806,1.61,-5.1604,8.1724,1.6788,0.5067,0.2685,0.0988,-0.2913,0.1466,0.2742,11.621,17.51,-30.89,-29.03,80.48,-55.93,73.38,2,1006.08,56.336,30.453457,-84.31882,287.91,142.4569661,,0,27.664516,,0 / 17,17407,2018-04-26 00:40:49:468,,,
-5.0383,7.5954,1.6051,-5.0355,8.241,1.7221,-0.1419,0.4184,0.2443,-0.1881,0.2518,0.1393,11.621,17.03,-29.87,-30.64,77.53,-56.78,71.44,2,1006.09,62.521,30.453457,-84.31882,287.91,142.4569661,,0,27.664516,,0 / 17,17505,2018-04-26 00:40:49:566,,,
-5.5468,7.5087,1.4504,-4.847,8.3729,1.6242,0.7157,0.7312,-0.3131,0.0605,-0.0411,0.4067,11.621,17.93,-31.1,-30.45,75.95,-57.15,71.12,2,1006.09,62.521,30.453457,-84.31882,287.91,142.4569661,,0,27.664516,,0 / 17,17605,2018-04-26 00:40:49:666,,,
-4.3722,8.0216,-1.3239,-4.2345,8.7551,1.286,-0.7867,-0.0155,0.2188,0.5808,-0.9216,0.7617,11.621,15.8,-33.68,-28.66,80.28,-61.11,74.04,0,1006.08,62.521,30.453457,-84.31882,287.91,142.4569661,,0,27.664516,,0 / 17,17705,2018-04-26 00:40:49:766,,,
-4.0451,8.8837,2.5455,-4.3956,8.6776,1.2707,1.1949,-0.4114,-1.6159,-0.0725,0.3662,-0.2459,11.621,15.18,-33.75,-28.73,80.39,-62.2,73.88,0,1006.08,56.016,30.453457,-84.31882,287.91,142.4569661,,0,27.664516,,0 / 17,17806,2018-04-26 00:40:49:867,,,
-4.7816,7.3438,0.5976,-4.1789,8.8676,0.3735,0.3669,-1.1509,3.9394,0.8165,0.4746,0.27,11.621,14.5,-35.74,-26.39,91.63,-64.68,84.89,0,1006.07,56.016,30.453457,-84.31882,287.91,142.4569661,,0,27.664516,,0 / 17,17905,2018-04-26 00:40:49:966,,,
-6.0148,9.6735,-1.2651,-3.7118,9.0754,0.3102,-0.5388,-0.0145,-0.6447,0.7505,-0.6715,-0.0031,11.621,12.48,-37.04,-25.38,92.54,-67.69,85.22,0,1006.07,56.016,30.453457,-84.31882,287.91,142.4569661,,0,27.664516,,0 / 17,18006,2018-04-26 00:40:50:067,,,
-4.6181,8.2323,-0.0261,-4.1597,8.8787,-0.3179,0.4028,0.5952,0.0348,0.572,0.186,-0.4407,11.621,12.1,-39.35,-23.4,101.78,-66.43,90.63,0,1006.08,46.268,30.453457,-84.31882,287.91,142.4569661,,0,27.664516,,0 / 17,18106,2018-04-26 00:40:50:167,,,
-4.5142,7.947,0.3074,-4.6056,8.6359,-0.6683,1.9671,-1.5039,-1.0431,0.1128,0.4682,-0.2517,11.621,14.73,-39.05,-21.41,104.81,-63.29,95.21,0,1006.07,46.268,30.453457,-84.31882,287.91,142.4569661,,0,27.664516,,0 / 17,18207,2018-04-26 00:40:50:268,,,
-5.3857,7.6424,-2.5905,-5.3018,8.2537,0.0519,-2.4511,2.3428,-1.5362,-1.0996,-1.099,-1.021,11.621,18.25,-35.04,-23.7,98.53,-57.28,89.44,0,1006.07,46.268,30.453457,-84.31882,287.91,142.4569661,,0,27.664516,,0 / 17,18307,2018-04-26 00:40:50:368,,,
-1.9525,4.3796,1.3893,-4.6953,8.604,-0.4024,-3.7102,3.0878,0.5244,0.5793,0.8682,1.415,11.621,18.22,-36.36,-24.5,99.77,-56.1,86.44,0,1006.08,46.268,30.453457,-84.31882,287.91,142.4569661,,0,27.664516,,0 / 17,18405,2018-04-26 00:40:50:466,,,
-4.9858,17.834,0.3757,-5.1322,8.3582,-0.193,2.7189,0.6158,-1.2009,-0.6344,-0.4203,0.1217,11.621,17.53,-37.68,-23.11,102.64,-58.43,92.15,0,1006.06,56.577,30.453457,-84.31882,287.91,142.4569661,,0,27.664516,,0 / 17,18507,2018-04-26 00:40:50:568,,,
-3.5079,8.2287,1.911,-4.1594,8.8701,0.5073,-2.7942,2.1434,-2.5256,-0.0785,-0.6498,0.9531,11.621,12.33,-37.04,-24.82,95.61,-64.71,83.05,0,1006.06,56.577,30.453457,-84.31882,287.91,142.4569661,,0,27.664516,,0 / 17,18608,2018-04-26 00:40:50:669,,,
-1.4177,6.696,3.156,-2.7983,9.3979,-0.2914,-0.6363,-0.932,-1.0975,1.3015,-0.3079,1.1238,11.621,9.73,-37.61,-25.45,94.3,-69.03,83.78,0,1006.06,56.577,30.453457,-84.31882,287.91,142.4569661,,0,27.664516,,0 / 17,18706,2018-04-26 00:40:50:767,,,
-3.7944,9.0341,-0.2468,-2.2313,9.5143,-0.858,-1.3825,1.6533,0.6484,0.6804,1.0104,0.9791,11.621,6.51,-41.25,-21.05,116.37,-75.9,111.03,0,1006.06,53.239,30.453457,-84.31882,287.91,142.4569661,,0,27.664516,,0 / 17,18806,2018-04-26 00:40:50:867,,,
-1.3557,9.6747,-2.0232,-1.756,9.5853,-1.1288,-0.1324,0.3124,0.2061,-8.00E-04,-0.0503,0.2937,10.564,3.94,-42.22,-19.23,132.3,-76.78,123.16,0,1006.06,53.239,30.453457,-84.31882,287.91,142.4569661,,0,27.664516,,0 / 17,18906,2018-04-26 00:40:50:967,,,
-4.1191,12.5425,0.1286,-1.7422,9.5887,-1.1211,0.4111,-0.5174,0.3686,-0.0593,0.1183,0.16,10.564,3.81,-42.52,-19.18,131.13,-77.81,122.76,0,1006.05,53.239,30.453457,-84.31882,287.91,142.4569661,,0,27.664516,,0 / 17,19006,2018-04-26 00:40:51:067,,,
-2.1543,10.0852,-1.3635,-1.5247,9.6123,-1.2308,-0.0812,-0.0345,0.0491,0.0378,0.1463,0.1473,10.564,3.15,-42.74,-19.51,133.04,-78.5,123.91,0,1006.08,57.866,30.453457,-84.31882,287.91,142.4569661,,0,27.664516,,0 / 17,19106,2018-04-26 00:40:51:167,,,
-1.709,9.34,-1.4091,-1.5249,9.5582,-1.5976,-0.0513,0.0155,0.4201,0.3451,0.1626,-0.0401,10.564,2.56,-43.26,-16.77,142.85,-77.76,134.72,0,1006.08,57.866,30.453457,-84.31882,287.91,142.4569661,,0,27.664516,,0 / 17,19205,2018-04-26 00:40:51:266,,,
-1.7317,10.8822,-1.7869,-1.5074,9.5723,-1.5281,1.3428,1.5316,-8.5068,0.847,0.7051,0.7067,10.564,3.31,-43.74,-18.25,143.65,-77.36,135.39,0,1006.13,57.866,30.453457,-84.31882,287.91,142.4569661,,0,27.664516,,0 / 17,19306,2018-04-26 00:40:51:367,,,
-2.356,7.6351,-0.5694,-0.9924,9.6128,-1.687,0.3566,-0.9725,0.7398,-0.5497,0.818,0.0163,10.564,3.76,-44.86,-16.69,151.25,-77.25,149.12,0,1006.13,55.951,30.453457,-84.31882,287.91,142.4569661,,0,27.664516,,0 / 17,19406,2018-04-26 00:40:51:467,,,
-1.4153,10.5488,-2.3302,-0.9798,9.6228,-1.6363,0.6667,-0.8079,0.508,-0.035,0.4126,-0.0549,10.564,5.14,-43.44,-17.09,147.12,-78.79,149.09,0,1006.32,55.951,30.453457,-84.31882,287.91,142.4569661,,0,27.664516,,0 / 17,19506,2018-04-26 00:40:51:567,,,
-1.7627,9.83,-1.5566,-0.8252,9.6362,-1.643,0.6818,0.5022,-0.1868,-0.0416,0.5244,0.0733,3.169,6.58,-43.45,-17.68,145.39,-79.2,153.33,0,1006.42,55.951,30.453457,-84.31882,287.91,142.4569661,,0,27.664516,,0 / 17,19606,2018-04-26 00:40:51:667,,,
-0.9402,9.1016,-1.2891,-0.7487,9.6466,-1.618,-0.3005,0.459,-0.277,-0.0962,0.0203,-0.1296,3.169,6.05,-43.06,-18.34,148.72,-79.53,155.17,0,1006.35,55.951,30.453457,-84.31882,287.91,142.4569661,,0,27.664516,,0 / 17,19705,2018-04-26 00:40:51:766,,,
-1.062,9.7349,-1.15,-1.0337,9.6486,-1.4393,-0.9972,0.7854,-0.4762,-0.1352,-0.0281,-0.2793,3.169,7.57,-43.36,-16.89,139.55,-79.53,149.46,0,1006.35,54.354,30.453457,-84.31882,287.91,142.4569661,,0,27.664516,,0 / 17,19805,2018-04-26 00:40:51:866,,,
-0.1189,8.8403,-0.7637,-1.3772,9.6685,-0.9273,-0.7333,-0.2071,-0.2205,-0.3561,-0.5748,-0.2313,3.169,6.58,-42.66,-19.09,131.94,-80.26,136.94,0,1006.21,54.354,30.453457,-84.31882,287.91,142.4569661,,0,27.664516,,0 / 17,19905,2018-04-26 00:40:51:966,,,
-1.8439,8.4382,-0.9617,-1.5725,9.6611,-0.6531,0.094,0.3999,0.8323,-0.4331,-0.2148,-0.0131,3.169,7.63,-40.64,-21.06,109.09,-80,112.55,0,1006.21,54.354,30.453457,-84.31882,287.91,142.4569661,,0,27.664516,,0 / 17,20006,2018-04-26 00:40:52:067,,,
-1.5072,10.6679,-0.7601,-1.6143,9.6762,-0.0205,0.524,-1.1509,0.5433,-0.5657,-0.0902,-0.0726,3.169,7.18,-40.54,-23.26,100.6,-80.64,101.63,0,1006.09,55.453,30.453457,-84.31882,287.91,142.4569661,,0,27.664516,,0 / 17,20106,2018-04-26 00:40:52:167,,,
-1.7328,10.6896,-0.2036,-1.5909,9.6784,0.1853,0.7612,-2.1183,1.2541,-0.2773,-0.0094,0.0533,3.169,6.58,-38.95,-25.02,82.07,-80.6,83.36,0,1006.03,55.453,30.453457,-84.31882,287.91,142.4569661,,0,27.664516,,0 / 17,20207,2018-04-26 00:40:52:268,,,
-2.3799,11.766,-0.8369,-1.4795,9.6901,0.3862,1.1073,-0.8147,0.9725,-0.2462,-0.0134,0.103,1.136,6.95,-39.56,-26.16,73.47,-81.03,75.37,0,1006.03,55.453,30.453457,-84.31882,287.91,142.4569661,,0,27.664516,,0 / 17,20306,2018-04-26 00:40:52:367,,,
-2.4371,10.3754,-0.5419,-1.3246,9.7124,0.389,-0.4009,0.1833,0.0922,-0.0102,0.2957,0.1365,1.136,7.44,-38.89,-25.26,70.73,-81.52,73.99,0,1006.03,57.08,30.453457,-84.31882,287.91,142.4569661,,0,27.664516,,0 / 17,20405,2018-04-26 00:40:52:466,,,
-0.9402,9.2208,0.5424,-1.3627,9.7069,0.3937,0.3026,0.5589,-0.1494,-0.0328,0.0716,-0.1097,1.136,7.47,-38.48,-25.3,69.4,-81.91,73.63,0,1006.07,57.08,30.453457,-84.31882,287.91,142.4569661,,0,27.664516,,0 / 17,20505,2018-04-26 00:40:52:566,,,
-1.703,9.11,0.5161,-1.3782,9.705,0.3877,-0.0182,-0.668,0.235,-0.0029,0.0716,0.0346,1.136,7.73,-38.84,-25.61,68.75,-81.45,74.06,0,1006.07,57.08,30.453457,-84.31882,287.91,142.4569661,,0,27.664516,,0 / 17,20606,2018-04-26 00:40:52:667,,,
-1.7699,10.3657,-0.4495,-1.3707,9.7105,0.2507,0.2937,-0.8861,0.3798,0.2508,0.2111,0.0871,1.136,7.87,-39.06,-24.95,73.85,-81.83,79.63,0,1006.15,61.271,30.453457,-84.31882,287.91,142.4569661,,0,27.664516,,0 / 17,20705,2018-04-26 00:40:52:766,,,
-2.0313,10.4127,0.1742,-1.1313,9.743,-0.1738,0.2467,-0.1449,0.229,0.3548,0.1932,0.2181,1.136,7.42,-39.27,-23.07,92.76,-83.3,98.73,0,1006.19,61.271,30.453457,-84.31882,287.91,142.4569661,,0,27.664516,,0 / 17,20805,2018-04-26 00:40:52:866,,,
-1.2184,10.1707,-0.4831,-0.9183,9.7518,-0.8763,0.3058,-0.4432,0.5342,0.5553,0.2434,0.4451,1.136,7.02,-40.5,-22.09,111.73,-83.83,119.48,0,1006.19,61.271,30.453457,-84.31882,287.91,142.4569661,,0,27.664516,,0 / 17,20906,2018-04-26 00:40:52:967,,,
-1.6696,10.149,-0.4039,-0.2967,9.7143,-1.3344,0.451,0.0366,0.018,0.7315,0.1746,0.5211,1.056,5.47,-42.24,-19.71,159.07,-81.99,167.46,0,1006.26,61.271,30.453457,-84.31882,287.91,142.4569661,,0,27.664516,,0 / 17,21005,2018-04-26 00:40:53:066,,,
-1.1718,8.0722,-0.4615,0.3493,9.5952,-2.0115,-0.4981,1.3925,-0.6204,0.5786,0.5712,0.5255,1.056,4.29,-43.87,-16.45,177.27,-77.99,-170.15,0,1006.18,50.402,30.453457,-84.31882,287.91,142.4569661,,0,27.664516,,0 / 17,21107,2018-04-26 00:40:53:168,,,
1.2288,8.4358,-1.6286,0.3671,9.5779,-2.0895,-0.0405,-0.6011,-0.535,0.0044,-0.1585,-0.0463,1.056,4.03,-44.08,-14.78,176.76,-77.99,-170.15,0,1006.18,50.402,30.453457,-84.31882,287.91,142.4569661,,0,27.664516,,0 / 17,21206,2018-04-26 00:40:53:267,,,
0.0016,10.0985,-2.1371,0.1476,9.6059,-1.9851,0.2991,-0.223,0.3012,-0.0942,-0.4344,-0.122,1.056,3.77,-44.26,-15.65,176.22,-77.66,-171.82,0,1006.15,50.402,30.453457,-84.31882,287.91,142.4569661,,0,27.664516,,0 / 17,21306,2018-04-26 00:40:53:367,,,
-0.4699,10.202,-1.7773,-0.0024,9.6389,-1.8244,0.2136,0.3347,0.4264,-0.287,-0.5119,-0.1866,1.056,3.6,-43,-17.26,170.75,-79.28,179.93,0,1006.15,50.126,30.453457,-84.31882,287.91,142.4569661,,0,27.664516,,0 / 17,21406,2018-04-26 00:40:53:467,,,
-0.3469,9.6229,-1.3395,-0.2957,9.6975,-1.4515,-0.6217,0.2055,-0.1751,-0.3162,-0.1355,-0.207,1.056,3.37,-42.77,-18.02,164.36,-81.31,168.49,0,1006.18,50.126,30.453457,-84.31882,287.91,142.4569661,,0,27.664516,,0 / 17,21505,2018-04-26 00:40:53:566,,,
0.6474,9.0101,-0.9772,-0.681,9.7346,-1.0047,-0.0186,0.5946,-0.9372,-0.3467,-0.321,-0.3029,1.056,4.11,-43.53,-18.18,155.22,-82.01,159.96,0,1006.19,50.126,30.453457,-84.31882,287.91,142.4569661,,0,27.664516,,0 / 17,21605,2018-04-26 00:40:53:666,,,
0.3908,8.9306,-0.1328,-0.9193,9.7397,-0.727,-1.7666,0.935,-0.2471,-0.3791,-0.6719,-0.4859,1.42,4.69,-42.17,-22.12,125.78,-83.14,128.34,0,1006.13,53.18,30.453457,-84.31882,287.91,142.4569661,,0,27.664516,,0 / 17,21705,2018-04-26 00:40:53:766,,,
-0.0879,9.0895,-0.5107,-1.7914,9.6419,-0.2451,1.144,-1.0969,0.308,-0.2404,-0.8293,-0.6962,1.42,5.58,-41.02,-23.3,101.45,-79.38,97.79,0,1006.13,53.18,30.453457,-84.31882,287.91,142.4569661,,0,27.664516,,0 / 17,21805,2018-04-26 00:40:53:866,,,
-4.6205,10.9388,-0.2408,-2.0939,9.5835,-0.0885,0.4475,-1.1152,0.6841,-0.1509,0.2699,0.0019,1.42,6.55,-39.72,-24.28,96.35,-77.66,92.42,0,1006.21,53.18,30.453457,-84.31882,287.91,142.4569661,,0,27.664516,,0 / 17,21906,2018-04-26 00:40:53:967,,,
-1.9656,10.5813,-0.5203,-1.8307,9.6374,-0.067,-0.3868,-0.6066,-0.0501,-0.1196,0.4524,0.2598,1.42,7.29,-39.25,-23.95,94.24,-78.28,91.77,0,1006.21,55.501,30.453457,-84.31882,287.91,142.4569661,,0,27.664516,,0 / 17,22006,2018-04-26 00:40:54:067,,,
-1.6911,9.4808,-0.2864,-1.6023,9.6737,0.2973,-0.3248,1.1291,-0.2522,-0.3526,-0.3606,0.1839,1.42,6.18,-38.73,-24.62,89.82,-79.68,87.28,0,1006.13,55.501,30.453457,-84.31882,287.91,142.4569661,,0,27.664516,,17-Sep,22105,2018-04-26 00:40:54:166,,,
-1.8188,8.1516,0.7907,-1.3697,9.7073,0.3574,-0.2228,-0.4296,0.0902,-0.068,-0.0498,0.0915,1.42,4.63,-38.9,-25.41,76.73,-81.7,75.38,0,1006.15,55.501,30.453457,-84.31882,287.91,142.4569661,,0,27.664516,,17-Sep,22205,2018-04-26 00:40:54:266,,,
-2.005,9.9636,0.3889,-1.5119,9.6844,0.4047,0.3854,-0.0306,0.0082,-0.0362,-0.0222,-0.1848,1.42,4.87,-38.69,-26.48,76.03,-81.32,74.16,0,1006.13,55.501,30.453457,-84.31882,287.91,142.4569661,,0,27.664516,,17-Sep,22305,2018-04-26 00:40:54:366,,,
-1.9585,9.6819,0.5077,-1.5183,9.6848,0.3672,0.2168,-0.0178,0.1714,0.0437,-0.0176,0.052,0.852,6.13,-39.59,-25.2,77.22,-80.84,76.4,0,1006.13,49.649,30.453457,-84.31882,287.91,142.4569661,,0,27.664516,,17-Sep,22407,2018-04-26 00:40:54:468,,,
-1.6947,9.7722,0.1322,-1.4567,9.6954,0.3359,0.4345,0.056,0.1781,0.0484,-0.0373,0.0412,0.852,4.61,-39.51,-25.73,79.49,-81.23,77.02,0,1006.1,49.649,30.453457,-84.31882,287.91,142.4569661,,0,27.664516,,17-Sep,22505,2018-04-26 00:40:54:566,,,
-1.9823,9.765,0.2042,-1.4098,9.7018,0.3514,0.4804,-0.0326,0.3413,-0.0253,-0.0307,0.0851,0.852,4.9,-38.97,-24.49,77.83,-81.48,76,0,1006.1,49.649,30.453457,-84.31882,287.91,142.4569661,,0,27.664516,,17-Sep,22606,2018-04-26 00:40:54:667,,,
-1.6075,9.9239,0.0603,-1.2792,9.7203,0.3404,0.2428,-0.2406,0.413,-0.0016,0.0346,0.1253,0.852,4.54,-38.78,-26.59,75.63,-81.76,74.49,0,1006.06,39.402,30.453457,-84.31882,287.91,142.4569661,,0,27.664516,,17-Sep,22705,2018-04-26 00:40:54:766,,,
-1.524,10.2815,0.1394,-1.2641,9.7282,-0.0288,0.3976,-0.7186,0.0976,0.2843,0.1904,-0.0034,0.852,3.59,-39.31,-25.24,82.54,-82.61,80.15,0,1006.13,39.402,30.453457,-84.31882,287.91,142.4569661,,0,27.664516,,17-Sep,22805,2018-04-26 00:40:54:866,,,
-1.7352,10.3369,0.0267,-1.2268,9.727,-0.3406,0.508,-0.3935,-0.1558,0.4717,0.3533,0.2391,0.852,4.47,-40.76,-23.27,108.12,-82.54,105.52,0,1006.13,39.402,30.453457,-84.31882,287.91,142.4569661,,0,27.664516,,17-Sep,22905,2018-04-26 00:40:54:966,,,
-1.5419,10.0443,-0.3403,-0.716,9.7362,-0.9641,-0.1668,-0.5486,0.3367,0.4366,0.4414,0.4303,0.852,3.72,-40.6,-21.13,122.51,-82.94,121.96,0,1006.23,44.483,30.453457,-84.31882,287.91,142.4569661,,0,27.664516,,17-Sep,23006,2018-04-26 00:40:55:067,,,
-0.6239,10.2321,-0.8633,-0.5254,9.7016,-1.3564,0.0174,0.1563,0.3081,0.6474,0.3226,0.1323,0.852,3.39,-42.91,-19.25,157.06,-81.47,158.83,0,1006.23,44.483,30.453457,-84.31882,287.91,142.4569661,,0,27.664516,,0 / 17,23105,2018-04-26 00:40:55:166,,,
-0.6513,9.2015,-2.407,-0.2864,9.571,-2.1332,0.3742,0.2377,0.4073,0.6407,0.2938,0.1698,0.852,3.23,-43.66,-16.16,168.34,-77.33,172.35,0,1006.23,44.483,30.453457,-84.31882,287.91,142.4569661,,0,27.664516,,0 / 17,23206,2018-04-26 00:40:55:267,,,
-0.6155,9.0101,-2.3794,-0.121,9.4872,-2.4927,-0.3444,1.8543,0.5122,0.2776,0.2153,0.0696,0.852,2.5,-45.45,-14.07,173.86,-75.26,177.22,0,1006.19,46.18,30.453457,-84.31882,287.91,142.4569661,,0,27.664516,,0 / 17,23305,2018-04-26 00:40:55:366,,,
0.3442,7.9313,-3.2274,-0.1188,9.5158,-2.3817,-0.2399,1.5505,0.4684,-0.3344,-0.1174,-0.031,0.852,3.27,-44.46,-13.98,171.29,-75.93,177.14,0,1006.19,46.18,30.453457,-84.31882,287.91,142.4569661,,0,27.664516,,0 / 17,23405,2018-04-26 00:40:55:466,,,
-0.2872,8.1625,-3.231,-0.2024,9.6047,-1.9863,0.983,0.3616,1.2345,-0.3866,-0.1514,-0.0286,0.852,3.18,-44.03,-15.3,170.19,-77.3,175.54,0,1006.19,46.18,30.453457,-84.31882,287.91,142.4569661,,0,27.664516,,0 / 17,23505,2018-04-26 00:40:55:566,,,
-1.6505,10.2863,-3.0187,-0.194,9.6193,-1.9151,1.0319,-0.9452,2.0778,-0.0311,0.1408,-0.0938,0.852,3.55,-44.12,-17.44,167.08,-78.68,174.21,0,1006.22,46.18,30.453457,-84.31882,287.91,142.4569661,,0,27.664516,,0 / 17,23606,2018-04-26 00:40:55:667,,,
-1.0524,11.0412,-3.5285,-0.3455,9.622,-1.8797,-0.3393,-0.1246,0.3815,-0.1049,0.1152,-0.1277,0.852,4.46,-44.59,-16.57,166.16,-78.62,172.67,0,1006.04,43.965,30.453457,-84.31882,287.91,142.4569661,,0,27.664516,,0 / 17,23705,2018-04-26 00:40:55:766,,,
-1.3986,8.6116,-3.4661,-0.5786,9.6237,-1.8126,0.7236,0.6828,0.562,-0.1135,-0.2219,-0.1111,0.852,3.53,-43.82,-17.08,162.48,-77.93,166.94,0,1006.04,43.965,30.453457,-84.31882,287.91,142.4569661,,0,27.664516,,0 / 17,23806,2018-04-26 00:40:55:867,,,
-0.5152,9.2208,-0.6186,-0.6423,9.6664,-1.5438,-0.7013,-0.3966,-1.33,-0.447,0.0496,-0.2039,0.237,4.78,-42.18,-18.29,151.95,-80.19,157.41,0,1006.03,43.965,30.453457,-84.31882,287.91,142.4569661,,0,27.664516,,0 / 17,23905,2018-04-26 00:40:55:966,,,
-0.76,10.1791,-0.2816,-0.9004,9.7188,-0.9847,-0.2001,0.3009,-0.8399,-0.4081,-0.6696,-0.158,0.237,4.26,-41.83,-19.67,137.04,-82.18,137.56,0,1006.03,50.915,30.453457,-84.31882,287.91,142.4569661,,0,27.664516,,0 / 17,24005,2018-04-26 00:40:56:066,,,
-0.643,9.0438,-0.6342,-1.0851,9.73,-0.6206,0.127,0.8542,-0.1971,-0.538,-0.7943,-0.0865,0.237,3.49,-42.01,-21.73,123.45,-82.68,119.76,0,1006.1,50.915,30.453457,-84.31882,287.91,142.4569661,,0,27.664516,,0 / 17,24105,2018-04-26 00:40:56:166,,,
-3.3062,9.3785,-0.3139,-1.0312,9.7547,0.1358,2.1136,0.5646,0.5728,-0.5771,-0.6145,0.1188,0.237,2.27,-40.02,-24.82,106.68,-83.33,101.08,0,1006.13,50.915,30.453457,-84.31882,287.91,142.4569661,,0,27.664516,,0 / 17,24205,2018-04-26 00:40:56:266,,,
-2.9421,8.8247,-0.296,-0.8525,9.766,0.368,0.577,0.7766,1.4519,-0.4315,0.2716,0.2718,0.237,1.08,-38.04,-26.43,72.11,-84.57,66.65,0,1006.17,51.17,30.453457,-84.31882,287.91,142.4569661,,0,27.664516,,0 / 17,24306,2018-04-26 00:40:56:367,,,
-0.7421,9.9263,0.4513,-0.982,9.714,0.9535,-0.0603,-3.6731,-2.059,-0.553,0.4178,-0.1356,0.237,0.99,-37.61,-27.9,55.51,-84.17,50.88,0,1006.17,51.17,30.453457,-84.31882,287.91,142.4569661,,0,27.664516,,0 / 17,24405,2018-04-26 00:40:56:466,,,Out
-1.3736,13.8537,2.9473,-1.832,9.6004,0.8444,-0.2831,-2.0214,-2.0172,0.169,0.0387,-0.8191,0.237,4.74,-36.76,-28.68,55.86,-79.39,54,0,1005.97,51.17,30.453457,-84.31882,287.91,142.4569661,,0,27.664516,,0 / 17,24505,2018-04-26 00:40:56:566,,,Out
-0.8113,11.3398,0.0063,-1.772,9.6451,0.2612,-0.787,-1.6152,1.1194,0.9155,-0.029,-0.0179,1.056,6.39,-38.67,-25.63,84.38,-79.48,81.62,0,1005.97,54.498,30.453457,-84.31882,287.91,142.4569661,,0,27.664516,,0 / 17,24605,2018-04-26 00:40:56:666,,,Out
-2.2032,10.7004,0.0363,-1.637,9.626,-0.9469,0.4863,0.621,-0.1386,0.9162,0.771,0.0864,1.056,6.94,-41.48,-20.59,119.52,-78.89,120.05,0,1005.98,54.498,30.453457,-84.31882,287.91,142.4569661,,0,27.664516,,0 / 17,24705,2018-04-26 00:40:56:766,,,Out
-2.2056,8.9727,-0.6474,-1.3178,9.6192,-1.4035,-0.2021,3.2883,1.0854,0.2618,0.8764,0.2947,1.056,7.2,-41.47,-19.1,133.07,-78.68,136.8,0,1005.97,54.498,30.453457,-84.31882,287.91,142.4569661,,0,27.664516,,0 / 17,24805,2018-04-26 00:40:56:866,,,Out
-1.432,6.1687,-2.1467,-0.8961,9.6512,-1.5122,0.3237,2.9415,0.8549,-0.0746,0.5579,0.2642,1.056,7.57,-42.09,-19.67,140.12,-79.68,149.35,0,1005.97,54.498,30.453457,-84.31882,287.91,142.4569661,,0,27.664516,,0 / 17,24905,2018-04-26 00:40:56:966,,,Out
-1.1288,6.9344,-1.9104,-0.7635,9.6664,-1.4881,-1.0847,-2.5106,0.5952,-0.0459,0.0252,0.1429,1.056,7.87,-42.67,-19.32,143.28,-80.29,154.3,0,1006.09,55.51,30.453457,-84.31882,287.91,142.4569661,,0,27.664516,,0 / 17,25006,2018-04-26 00:40:57:067,,,Out
-1.1324,14.0451,-2.1731,-0.7599,9.6565,-1.5524,1.5163,-6.1658,1.1617,0.2141,-0.7274,-0.0594,1.056,7.23,-42.66,-17.8,144.11,-80.18,152.84,0,1006.25,55.51,30.453457,-84.31882,287.91,142.4569661,,0,27.664516,,0 / 17,25105,2018-04-26 00:40:57:166,,,Out
-0.1368,9.5025,-0.1556,-0.8278,9.6613,-1.4869,0.7125,1.0839,-1.2608,-0.0155,-0.9139,-0.0032,1.056,4.46,-42.25,-19.06,150.09,-79.05,150.56,0,1006.25,55.51,30.453457,-84.31882,287.91,142.4569661,,0,27.664516,,0 / 17,25206,2018-04-26 00:40:57:267,,,Out
1.2085,9.5085,-0.6738,-0.6066,9.6827,-1.454,-1.2177,-0.2309,0.0702,-0.2629,-0.1167,-0.1036,0.473,2.67,-42.67,-19.72,156.42,-80.76,157.35,0,1006.11,60.291,30.453457,-84.31882,287.91,142.4569661,,0,27.664516,,0 / 17,25305,2018-04-26 00:40:57:366,,,Out
-1.0918,10.0647,-0.2372,-0.8015,9.7338,-0.9208,-0.9148,0.4048,-0.4133,-0.4094,0.0601,-0.1362,0.473,3.31,-40.98,-21.45,139.61,-82.85,138.96,0,1006.02,60.291,30.453457,-84.31882,287.91,142.4569661,,0,27.664516,,0 / 17,25406,2018-04-26 00:40:57:467,,,Out
0.2977,8.7873,-0.0645,-0.8433,9.7737,0.0128,0.9721,0.5536,-0.4782,-0.7336,-0.713,-0.0249,0.473,2.79,-40.63,-22.83,119.72,-84.32,118.5,0,1006.02,60.291,30.453457,-84.31882,287.91,142.4569661,,0,27.664516,,0 / 17,25505,2018-04-26 00:40:57:566,,,Out
-1.8904,9.1859,0.5424,-0.6907,9.7804,0.3192,1.728,0.4667,0.6265,-0.5383,-0.7151,0.2019,0.473,0.04,-39.53,-26.33,71.77,-85.55,65.2,0,1005.98,61.821,30.453457,-84.31882,287.91,142.4569661,,0,27.664516,,0 / 17,25605,2018-04-26 00:40:57:666,,,Out
-1.3473,9.2473,-0.1712,-0.3247,9.7755,0.7547,0.4551,-0.1455,1.2628,-0.3544,0.0561,0.3486,0.473,-1.32,-38.1,-28.41,46.8,-85.64,40.35,0,1006,61.821,30.453457,-84.31882,287.91,142.4569661,,0,27.664516,,0 / 17,25706,2018-04-26 00:40:57:767,,,Out
-0.9199,10.2309,0.0675,-0.5356,9.7551,0.8876,-1.0615,-1.8478,-2.0474,0.0676,0.2265,-0.8618,0.473,0.85,-37.13,-28.91,33.56,-83.93,31.11,0,1006,61.821,30.453457,-84.31882,287.91,142.4569661,,0,27.664516,,0 / 17,25805,2018-04-26 00:40:57:866,,,Out
0.4397,9.3279,2.9377,-1.7756,9.6428,0.3158,-1.9917,0.8442,-1.7177,0.5917,0.2641,-1.0717,0.473,2.7,-37.44,-27.56,63.09,-81.95,59.45,0,1005.9,59.136,30.453457,-84.31882,287.91,142.4569661,,0,27.664516,,0 / 17,25905,2018-04-26 00:40:57:966,,,Out
-0.458,10.7366,1.4012,-2.0801,9.5866,0.0851,1.0469,-2.4971,-0.3402,0.5371,-0.0832,-0.3874,0.473,5.14,-39.79,-25.58,95.69,-77.75,87.66,0,1005.9,59.136,30.453457,-84.31882,287.91,142.4569661,,0,27.664516,,0 / 17,26006,2018-04-26 00:40:58:067,,,Out
-2.9325,10.6475,0.5868,-1.9896,9.5773,-0.743,-1.1207,2.7867,-1.6203,0.5478,0.6007,0.1245,0.473,6.36,-40.35,-22.71,115,-77.5,110.48,0,1006.05,59.136,30.453457,-84.31882,287.91,142.4569661,,0,27.664516,,0 / 17,26106,2018-04-26 00:40:58:167,,,Out
2.5037,7.3245,-2.1251,-1.7317,9.5909,-1.1192,-2.673,5.0402,0.3648,0.0723,0.7234,-0.008,0.473,6.65,-41.47,-20.69,122.65,-78.15,122.68,0,1006.05,59.136,30.453457,-84.31882,287.91,142.4569661,,0,27.664516,,0 / 17,26206,2018-04-26 00:40:58:267,,,Out
-3.3599,6.9248,-4.007,-1.9746,9.5817,-0.7272,3.6156,2.4543,2.0121,-1.7933,-1.1982,0.3955,0.473,7.91,-40.39,-21.46,110.35,-77.61,110.22,0,1005.97,58.073,30.453457,-84.31882,287.91,142.4569661,,0,27.664516,,0 / 17,26305,2018-04-26 00:40:58:366,,,Out
4.379,18.3685,5.4745,-2.4872,9.1244,2.6069,2.2738,-23.5955,2.4279,-2.8655,-0.2598,-1.1599,0.473,7.35,-32.23,-32.25,50.02,-68.45,43.65,0,1005.97,58.073,30.453457,-84.31882,287.91,142.4569661,,0,27.664516,,0 / 17,26407,2018-04-26 00:40:58:468,,,Out
2.0178,1.1265,-4.3705,-1.6325,9.2682,2.7699,-8.9037,12.3683,5.6472,-1.1177,-4.7872,0.5301,0.473,-8.54,-31.49,-33.28,63.2,-70.87,30.51,2,1005.84,58.073,30.453457,-84.31882,287.91,142.4569661,,0,27.664516,,0 / 17,26505,2018-04-26 00:40:58:566,,,Out
6.7856,-4.5394,1.4372,-0.9732,9.2262,3.1885,-6.8115,11.2232,2.1718,-0.2464,-4.3215,-2.3512,0.473,-15.18,-30.72,-31.75,59.54,-65.81,12.74,2,1005.84,66.817,30.453457,-84.31882,287.91,142.4569661,,0,27.664516,,0 / 17,26606,2018-04-26 00:40:58:667,,,Out
3.7762,-3.5245,2.2589,2.0932,9.0395,-3.1848,-12.0374,2.1964,4.9658,5.4673,-2.0322,2.9563,3.169,-27.12,-37.09,-5.73,326.23,-85.38,-107.72,2,1005.8,66.817,30.453457,-84.31882,287.91,142.4569661,,0,27.664516,,0 / 17,26705,2018-04-26 00:40:58:766,,,Out
14.3467,9.6109,1.3521,2.385,7.9024,-5.3009,-7.8161,0.9828,-6.5231,3.1807,-2.9884,1.8766,3.169,-33.76,-26.63,15.59,285.97,-53.66,-155.78,2,1005.85,66.817,30.453457,-84.31882,287.91,142.4569661,,0,27.664516,,0 / 17,26805,2018-04-26 00:40:58:866,,,Out
10.8753,6.1157,1.2729,3.9787,3.9405,-8.0547,-10.6311,-0.0856,-4.5157,3.4617,-0.1341,2.1548,3.169,-34.71,-18.95,22.49,288.16,-39.64,-155.37,2,1005.91,37.56,30.453457,-84.31882,287.91,142.4569661,,0,27.664516,,0 / 17,26905,2018-04-26 00:40:58:966,,,Out
14.5699,3.9931,-3.4169,4.7092,1.1872,-8.5235,-14.5087,-1.7731,4.4739,5.1525,1.0715,-2.0537,3.169,-38.89,-0.8,23,279.2,-6.95,-151.08,2,1005.91,37.56,30.453457,-84.31882,287.91,142.4569661,,0,27.664516,,0 / 17,27005,2018-04-26 00:40:59:066,,,Out
15.6096,-6.3887,-12.6706,7.5201,0.1027,-6.2987,-8.2474,7.3682,6.8993,3.7404,3.2208,-4.6795,3.169,-44.25,-7.04,12.8,250.27,-0.6,-129.95,2,1005.93,37.56,30.453457,-84.31882,287.91,142.4569661,,0,27.664516,,0 / 17,27105,2018-04-26 00:40:59:166,,,Out
14.1879,-7.1978,-14.9723,9.5987,1.6464,-1.1795,0.3863,5.0289,7.275,1.7234,4.6614,-2.0695,3.169,-40.42,-20.24,-7.66,232,-4.55,-111.38,2,1005.93,55.33,30.453457,-84.31882,287.91,142.4569661,,0,27.664516,,0 / 17,27205,2018-04-26 00:40:59:266,,,Out
9.0596,-3.7713,-9.2222,9.5308,2.105,0.9844,4.1756,5.1405,5.2291,0.4547,3.7888,-1.3893,3.169,-36.72,-24.35,-15.7,228.85,-9.66,-97.01,2,1005.99,55.33,30.453457,-84.31882,287.91,142.4569661,,0,27.664516,,0 / 17,27305,2018-04-26 00:40:59:366,,,Out
6.4704,-3.4643,-1.5974,7.8173,-0.0287,5.9266,-0.179,2.6004,5.5829,-0.4287,4.5226,2.2038,10.564,-26.43,-20.4,-30.99,231.1,-6.79,-68.66,2,1006.03,55.33,30.453457,-84.31882,287.91,142.4569661,,0,27.664516,,0 / 17,27406,2018-04-26 00:40:59:467,,,Out
11.4459,0.3632,-0.1041,6.2732,-0.3938,7.5318,-6.4885,0.951,6.4728,-2.7446,2.2473,-1.3345,10.564,-11.63,-15.26,-41.37,225.78,2.3,-39.79,2,1006.03,55.33,30.453457,-84.31882,287.91,142.4569661,,0,27.664516,,0 / 17,27505,2018-04-26 00:40:59:566,,,
9.0429,-2.6227,5.6461,4.9355,-2.5996,8.0697,-6.3041,1.0116,-1.5961,-3.7985,2.0655,-1.9172,10.564,-6.39,-8.06,-44.63,234.28,9.29,-33.89,2,1006.06,49.186,30.453457,-84.31882,287.91,142.4569661,,0,27.664516,,0 / 17,27606,2018-04-26 00:40:59:667,,,
11.1821,-3.675,9.7686,4.9433,-2.744,8.0169,-4.105,1.3676,-0.0414,-1.3281,0.8305,-2.5348,10.564,1.36,6.14,-44.77,258.89,16.24,-31.66,2,1006.08,49.186,30.453457,-84.31882,287.91,142.4569661,,0,27.664516,,0 / 17,27707,2018-04-26 00:40:59:768,,,
2.0405,-5.2798,7.0494,5.2995,-2.0915,7.9861,4.2243,2.769,2.2417,-0.7313,0.2971,-2.4743,10.564,0.41,12.94,-45.08,280.71,12.31,-33.57,2,1006.08,49.186,30.453457,-84.31882,287.91,142.4569661,,0,27.664516,,0 / 17,27805,2018-04-26 00:40:59:866,,,
0.5102,-5.2064,6.0455,5.5769,-1.7138,7.8865,4.4287,2.8009,0.6795,-0.6045,0.0609,-1.3682,10.564,-2.67,15.79,-44,290.41,10.85,-35.78,2,1006.09,42.374,30.453457,-84.31882,287.91,142.4569661,,0,27.664516,,0 / 17,27906,2018-04-26 00:40:59:967,,,
2.7973,-3.8266,10.3527,4.968,-1.4088,8.3409,-0.8575,4.2139,-2.303,-0.565,1.9714,-1.3289,10.564,-2.33,16.84,-43.41,294.16,10.06,-35.27,2,1006.09,42.374,30.453457,-84.31882,287.91,142.4569661,,0,27.664516,,0 / 17,28005,2018-04-26 00:41:00:066,,,
3.6628,-7.8636,13.7579,3.4958,-1.9726,8.9512,3.1543,2.3727,-4.1874,-1.1861,1.759,-0.4798,10.564,5.52,20.41,-40.88,300.92,10.37,-24.34,2,1006.1,42.374,30.453457,-84.31882,287.91,142.4569661,,0,27.664516,,0 / 17,28105,2018-04-26 00:41:00:166,,,
2.9561,-1.7835,11.9947,3.9324,-1.786,8.8081,-3.5174,-6.8185,-0.4442,-0.7966,0.5048,0.2316,13.734,6.74,17.56,-42.51,294.83,10.49,-24.06,2,1006.11,47.33,30.453457,-84.31882,287.91,142.4569661,,0,27.664516,,0 / 17,28206,2018-04-26 00:41:00:267,,,
5.8581,2.1258,9.1448,3.2811,-2.1886,8.9822,-0.2024,0.3549,2.5234,-0.7112,0.9357,-1.2765,13.734,7.13,21.86,-40.72,301.22,13.68,-21.18,2,1006.1,47.33,30.453457,-84.31882,287.91,142.4569661,,0,27.664516,,0 / 17,28305,2018-04-26 00:41:00:366,,,
3.4431,-2.5396,6.5744,3.1573,-2.9002,8.8236,-1.339,2.7162,0.6597,-1.2413,0.5393,-1.4243,13.734,6.46,24.22,-39.2,309.58,12.4,-20.76,2,1006.1,47.33,30.453457,-84.31882,287.91,142.4569661,,0,27.664516,,0 / 17,28406,2018-04-26 00:41:00:467,,,
4.6846,-4.5876,10.3251,3.028,-3.3647,8.7032,-0.5963,-1.0691,-1.3694,0.1981,0.0755,-0.9428,13.734,5.95,33.69,-34.03,322.06,20.06,-19.18,2,1006.11,32.483,30.453457,-84.31882,287.91,142.4569661,,0,27.664516,,0 / 17,28506,2018-04-26 00:41:00:567,,,
2.0429,-1.8642,9.2948,3.5001,-3.0018,8.6588,0.7519,-2.0772,-0.8723,0.1706,-0.3661,-0.449,13.734,2.01,32,-34.8,324.21,17.82,-22.01,2,1006.11,32.483,30.453457,-84.31882,287.91,142.4569661,,0,27.664516,,0 / 17,28605,2018-04-26 00:41:00:666,,,
4.151,-1.444,11.2319,3.4818,-2.9939,8.6689,0.3332,-0.6945,-1.2273,0.5629,0.0794,-0.0586,13.734,2.96,31.53,-33.37,324.91,17.77,-21.88,2,1006.12,32.483,30.453457,-84.31882,287.91,142.4569661,,0,27.664516,,0 / 17,28706,2018-04-26 00:41:00:767,,,
3.0528,-2.0857,10.1056,2.93,-2.4388,9.039,0.7622,-1.3864,-0.131,0.3443,0.7395,-0.2567,13.734,3.64,30.86,-35.87,322.22,15.49,-20.71,2,1006.12,32.483,30.453457,-84.31882,287.91,142.4569661,,0,27.664516,,0 / 17,28806,2018-04-26 00:41:00:867,,,
2.2876,-3.4715,9.579,2.0442,-2.2706,9.3221,1.7045,0.973,0.6746,0.232,0.7496,0.1019,10.564,6.04,29.26,-35.97,322.34,13.43,-16.32,2,1006.12,52.04,30.453457,-84.31882,287.91,142.4569661,,0,27.664516,,0 / 17,28905,2018-04-26 00:41:00:966,,,
-0.1667,-3.4197,9.4507,0.9175,-2.4734,9.4486,1.1341,0.2732,2.4942,-0.1821,1.5408,0.4774,10.564,14.01,29.24,-33.33,319.6,14.6,-5.55,2,1006.12,52.04,30.453457,-84.31882,287.91,142.4569661,,0,27.664516,,0 / 17,29006,2018-04-26 00:41:01:067,,,
-0.5869,-3.1284,8.0953,0.0777,-3.3722,9.2118,-0.0436,-0.2071,0.9839,-0.8476,0.3147,0.3123,10.564,16.31,30.94,-31.66,319.82,17.03,-2.31,2,1006.11,52.04,30.453457,-84.31882,287.91,142.4569661,,0,27.664516,,0 / 17,29106,2018-04-26 00:41:01:167,,,
0.0291,-3.2343,8.328,-0.2479,-3.7444,9.0639,-1.0589,-0.3369,0.7904,-0.3906,0.355,-0.7366,10.564,18.1,34.13,-27.93,320.03,22.44,1.57,2,1006.11,51.501,30.453457,-84.31882,287.91,142.4569661,,0,27.664516,,0 / 17,29205,2018-04-26 00:41:01:266,,,
-0.1619,-2.4445,13.0634,0.6761,-3.3134,9.2087,1.6579,-0.6884,0.832,0.8363,-0.7551,-0.9823,10.564,14.03,34.21,-30.24,324,19.74,-4.2,2,1006.1,51.501,30.453457,-84.31882,287.91,142.4569661,,0,27.664516,,0 / 17,29305,2018-04-26 00:41:01:366,,,
1.3088,-3.7616,9.5599,0.498,-3.7548,9.0493,-0.4119,0.5959,-0.5169,-0.5021,0.9139,-0.5859,10.564,12.37,35,-29.64,327.17,22.5,-3.15,2,1006.1,51.501,30.453457,-84.31882,287.91,142.4569661,,0,27.664516,,0 / 17,29406,2018-04-26 00:41:01:467,,,
1.4795,-4.6032,10.0984,-0.0977,-3.2936,9.2401,0.6426,1.3397,0.5787,0.4174,0.996,-1.3132,10.564,12.23,36.87,-27.51,331.02,22.42,-2.35,2,1006.1,43.851,30.453457,-84.31882,287.91,142.4569661,,0,27.664516,,0 / 17,29507,2018-04-26 00:41:01:568,,,
-0.9629,-0.0655,9.2912,-0.1613,0.0639,9.8085,0.1073,-2.4844,0.1257,3.5042,-0.0887,-0.4761,14.79,13.44,28.25,-33.87,332.74,10.66,3.56,2,1006.09,43.851,30.453457,-84.31882,287.91,142.4569661,,0,27.664516,,0 / 17,29605,2018-04-26 00:41:01:666,,,
-0.6776,4.2207,10.6022,0.8219,0.0322,9.7755,0.1825,0.2299,0.9125,0.3336,-1.1717,2.3521,14.79,9.97,21.89,-38.68,329.12,-0.19,-4.81,2,1006.08,43.851,30.453457,-84.31882,287.91,142.4569661,,0,27.664516,,0 / 17,29705,2018-04-26 00:41:01:766,,,
0.4027,0.3824,8.7778,0.3404,0.2027,9.802,-0.216,0.7916,-0.3614,0.151,0.7286,2.6525,14.79,12.79,19.63,-40.57,319.36,-0.49,-6.35,2,1006.08,59.41,30.453457,-84.31882,287.91,142.4569661,,0,27.664516,,0 / 17,29805,2018-04-26 00:41:01:866,,,
0.5436,-0.5988,9.681,-0.7983,0.7399,9.7494,0.6853,-0.7478,-1.7948,-0.407,2.6716,2.9125,14.79,23.83,12.55,-37.68,307.49,-4.33,4.68,2,1006.09,59.41,30.453457,-84.31882,287.91,142.4569661,,0,27.664516,,0 / 17,29907,2018-04-26 00:41:01:968,,,
-6.5615,1.1241,12.3917,-4.6873,-0.0318,8.6177,2.2976,-0.1479,-2.2301,-1.5513,4.1477,2.9183,14.79,40.28,5.29,-23.06,281.41,0.19,28.54,2,1006.09,59.41,30.453457,-84.31882,287.91,142.4569661,,0,27.664516,,0 / 17,30007,2018-04-26 00:41:02:068,,,
-4.7554,-0.0679,9.3116,-7.323,-2.1308,6.17,-5.8968,0.1182,-1.3031,-5.5479,2.4465,3.883,14.79,43.5,2.6,-17.91,264.2,7.44,38.2,2,1006.09,59.41,30.453457,-84.31882,287.91,142.4569661,,0,27.664516,,0 / 17,30105,2018-04-26 00:41:02:166,,,
-1.6541,-3.5208,8.0378,-7.4813,-2.3651,5.8883,-5.6361,1.2689,-3.2019,-4.4359,0.8267,2.697,14.79,44.32,-6.83,-12.25,226.43,13.95,51.79,2,1006.08,57.352,30.453457,-84.31882,287.91,142.4569661,,0,27.664516,,0 / 17,30205,2018-04-26 00:41:02:266,,,
-2.9731,-3.5353,10.6333,-6.5466,-3.1236,6.6047,-1.344,-1.1651,-4.3529,-2.3846,-1.8052,1.192,12.677,39.28,-9.76,-22.52,202.41,14.98,48.37,2,1006.08,57.352,30.453457,-84.31882,287.91,142.4569661,,0,27.664516,,0 / 17,30307,2018-04-26 00:41:02:368,,,
-4.5011,-1.5885,8.7011,-5.9459,-3.641,6.9011,-1.026,-2.2166,-0.51,-1.2276,-2.0902,0.6849,12.677,32.45,-8,-32.5,186.31,21.79,40.75,2,1006.08,57.352,30.453457,-84.31882,287.91,142.4569661,,0,27.664516,,0 / 17,30405,2018-04-26 00:41:02:466,,,
-4.5322,-1.7438,8.1265,-4.7429,-3.5745,7.8079,-1.0188,-0.4744,-0.6204,-0.1733,-1.4953,0.5821,12.677,28.5,-8.11,-35.99,186.05,22.54,34.57,2,1006.08,57.117,30.453457,-84.31882,287.91,142.4569661,,0,27.664516,,0 / 17,30505,2018-04-26 00:41:02:566,,,
-2.8299,-3.994,7.7115,-4.9239,-3.6353,7.6666,-0.4415,-0.1027,0.0416,0.9106,1.145,-0.3213,12.677,27.31,-7.57,-37.53,185.05,21.75,32.71,2,1006.08,57.117,30.453457,-84.31882,287.91,142.4569661,,0,27.664516,,0 / 17,30605,2018-04-26 00:41:02:666,,,
-8.29,-2.8081,9.7673,-4.5274,-2.9982,8.17,2.2573,-1.8608,-0.9973,1.0521,-0.4558,-0.2708,12.677,27.17,-11.01,-36.44,194.36,17.8,28.99,2,1006.09,57.117,30.453457,-84.31882,287.91,142.4569661,,0,27.664516,,0 / 17,30706,2018-04-26 00:41:02:767,,,
-4.2254,-1.7582,6.253,-3.6933,-4.7076,7.7739,-2.1141,-2.9062,4.0185,-2.4971,-1.1807,1.3323,12.677,18.94,-3.88,-42.04,178.08,28.68,25.41,2,1006.08,58.979,30.453457,-84.31882,287.91,142.4569661,,0,27.664516,,0 / 17,30805,2018-04-26 00:41:02:866,,,
-0.8531,-1.6294,3.3251,-4.2424,-5.258,7.1128,-3.6839,-3.3789,5.1379,-1.424,1.0149,2.7162,12.677,17.71,0.5,-43.33,164.63,32.41,30.81,2,1006.07,58.979,30.453457,-84.31882,287.91,142.4569661,,0,27.664516,,0 / 17,30906,2018-04-26 00:41:02:967,,,
-12.7617,-6.066,14.2845,-6.0213,-3.0605,7.1143,7.2427,2.4012,-9.0811,1.846,0.7549,2.3791,12.677,20.71,-5.87,-40.62,155.43,26.25,41.55,2,1006.07,58.979,30.453457,-84.31882,287.91,142.4569661,,0,27.664516,,0 / 17,31006,2018-04-26 00:41:03:067,,,
-10.8517,-5.3725,13.4916,-5.1918,-3.0536,7.7432,-1.0225,1.9988,1.6204,0.0294,-1.5717,-0.5229,36.975,14.27,-8.58,-43.56,150.06,18.14,33.84,2,1006.09,57.982,30.453457,-84.31882,287.91,142.4569661,,0,27.664516,,17-Aug,31105,2018-04-26 00:41:03:166,,,
-1.1467,-4.8609,4.9756,-3.4734,-3.171,8.6091,-1.1049,-0.233,1.8504,0.3896,-1.3824,-0.9313,36.975,11.88,-8.15,-44.56,155.9,19.3,27.46,2,1006.09,57.982,30.453457,-84.31882,287.91,142.4569661,,0,27.664516,,17-Aug,31205,2018-04-26 00:41:03:266,,,
-3.1128,-2.4963,7.8554,-3.0928,-3.1469,8.7617,0.9779,-1.3988,-0.586,0.1815,0.0429,-0.889,36.975,11.59,-10.9,-44.02,170.9,18.28,20.23,2,1006.09,57.982,30.453457,-84.31882,287.91,142.4569661,,0,27.664516,,17-Aug,31305,2018-04-26 00:41:03:366,,,
-4.8819,-1.4825,10.4402,-2.7487,-3.0783,8.8997,2.2592,-1.9621,-0.385,-0.1842,-0.7635,0.0419,36.975,10.78,-11.28,-43.28,174.89,18.29,17.16,2,1006.1,57.982,30.453457,-84.31882,287.91,142.4569661,,0,27.664516,,17-Aug,31405,2018-04-26 00:41:03:466,,,
-4.3173,-0.5362,8.4084,-3.1636,-4.2804,8.2405,1.3726,-0.638,-0.4826,-1.1193,0.4771,-0.3634,36.975,9.11,-9.81,-43.78,173.11,20.12,15.39,2,1006.11,54.424,30.453457,-84.31882,287.91,142.4569661,,0,27.664516,,17-Aug,31505,2018-04-26 00:41:03:566,,,
-4.4951,-3.5786,8.9229,-3.9393,-5.0551,7.4273,-0.0534,-0.1327,-0.1625,0.7806,-0.19,-0.2227,36.975,16.33,-1.18,-42.79,166.1,31.02,27.94,2,1006.11,54.424,30.453457,-84.31882,287.91,142.4569661,,0,27.664516,,17-Aug,31605,2018-04-26 00:41:03:666,,,
-3.4435,-3.976,8.3196,-2.9447,-4.2127,8.3558,-0.182,-1.104,0.7756,0.9902,-0.9895,-0.3114,36.975,13.85,-5.67,-45.33,176.09,25.43,19.41,2,1006.12,54.424,30.453457,-84.31882,287.91,142.4569661,,0,27.664516,,17-Aug,31706,2018-04-26 00:41:03:767,,,
-2.8597,-3.7303,8.033,-3.2158,-3.8223,8.443,0.2347,0.7344,2.2877,0.1259,0.2514,0.6062,67.612,14.08,-7.24,-43.89,174.25,24.09,20.8,2,1006.12,38.661,30.453457,-84.31882,287.91,142.4569661,,0,27.664516,,17-Aug,31805,2018-04-26 00:41:03:866,,,
-2.3727,-1.202,8.2117,-3.1146,-3.6059,8.5751,-1.197,1.3825,0.4308,-0.2104,-0.0697,0.1999,67.612,13.02,-7.79,-44.89,171.39,22.93,20.85,2,1006.1,38.661,30.453457,-84.31882,287.91,142.4569661,,0,27.664516,,17-Aug,31905,2018-04-26 00:41:03:966,,,
-1.9752,-5.0788,8.2333,-3.0604,-3.0365,8.8119,-0.8528,-0.9056,-1.4986,0.5626,-0.0143,0.0348,67.612,11.71,-8.69,-44.78,171.01,22.27,19.98,2,1006.1,38.661,30.453457,-84.31882,287.91,142.4569661,,0,27.664516,,17-Aug,32006,2018-04-26 00:41:04:067,,,
-2.51,-0.2785,9.8021,-2.7521,-2.3928,9.107,-0.0357,-1.5381,-0.684,0.592,0.0595,0.2367,67.612,9.72,-14.48,-44.5,172.68,14.12,16.81,2,1006.1,45.095,30.453457,-84.31882,287.91,142.4569661,,0,27.664516,,17-Aug,32106,2018-04-26 00:41:04:167,,,
-3.2143,-0.9708,9.3667,-3.2648,-2.2452,8.9742,0.4754,-1.1116,0.6754,0.1066,0.6172,-0.1435,67.612,12.29,-14.94,-43.19,172.14,13.23,19.99,2,1006.1,45.095,30.453457,-84.31882,287.91,142.4569661,,0,27.664516,,17-Aug,32205,2018-04-26 00:41:04:266,,,
-3.1152,-1.5572,8.448,-2.9386,-2.2756,9.0787,0.2798,-1.179,0.1465,0.2147,-0.5825,-0.4151,67.612,12.47,-14.85,-42.46,176.49,13.41,17.94,2,1006.09,45.095,30.453457,-84.31882,287.91,142.4569661,,0,27.664516,,17-Aug,32305,2018-04-26 00:41:04:366,,,
-2.9564,-1.0672,9.158,-2.0561,-2.001,9.3811,-0.2164,-1.0216,-1.0181,0.5047,-0.7042,-0.8609,67.612,10.13,-15.9,-43.09,181.31,11.77,12.36,2,1006.09,37.453,30.453457,-84.31882,287.91,142.4569661,,0,27.664516,,17-Aug,32405,2018-04-26 00:41:04:466,,,
-1.9907,-0.3351,9.0189,-1.0589,-1.8664,9.5724,-0.6055,-0.753,0.1452,-0.067,-0.9306,-0.4836,36.975,9.05,-15.03,-42.94,181.62,12.29,10.94,2,1006.09,37.453,30.453457,-84.31882,287.91,142.4569661,,0,27.664516,,17-Aug,32505,2018-04-26 00:41:04:566,,,
-1.4798,-0.2292,9.4915,-0.5135,-1.4135,9.694,1.2746,-2.0068,0.6318,0.4621,-0.8856,-0.123,36.975,6.54,-17.32,-42.48,185.39,10.97,6.31,2,1006.09,37.453,30.453457,-84.31882,287.91,142.4569661,,0,27.664516,,17-Aug,32605,2018-04-26 00:41:04:666,,,
-1.7543,1.7261,10.0432,0.6825,-0.7441,9.7579,1.8299,-2.7223,-0.1683,0.5639,-0.7033,-0.6166,36.975,3.23,-20.36,-43.63,186.7,6.53,0.1,2,1006.09,37.453,30.453457,-84.31882,287.91,142.4569661,,0,27.664516,,17-Aug,32705,2018-04-26 00:41:04:766,,,
0.3681,1.2324,9.7206,1.8438,-0.6563,9.6128,-0.0104,-0.5179,0.5856,0.2647,-0.7178,-0.2936,36.975,-2.44,-21.08,-41.81,194.07,3.84,-10.86,2,1006.09,48.068,30.453457,-84.31882,287.91,142.4569661,,0,27.664516,,17-Aug,32806,2018-04-26 00:41:04:867,,,
1.2204,-0.1967,8.7334,1.5115,0.5448,9.6775,1.9892,-0.2027,-0.8295,1.2588,0.2567,-0.8632,36.975,1.3,-25.81,-38.74,196.39,-3.18,-8.88,2,1006.1,48.068,30.453457,-84.31882,287.91,142.4569661,,0,27.664516,,17-Aug,32906,2018-04-26 00:41:04:967,,,
0.8277,0.9098,10.5218,1.9643,1.0763,9.5509,0.165,0.4794,0.6743,0.2937,-0.7156,-0.7774,36.975,1.67,-25,-39.32,200.22,-1.72,-10.07,2,1006.1,48.068,30.453457,-84.31882,287.91,142.4569661,,0,27.664516,,17-Aug,33005,2018-04-26 00:41:05:066,,,
1.4365,-0.3195,9.164,1.3947,2.1277,9.4744,-0.0786,-1.0321,0.6895,0.3204,0.748,-0.7714,36.975,5.01,-29.15,-36,206.16,-12.53,-8.37,2,1006.1,57.974,30.453457,-84.31882,287.91,142.4569661,,0,27.664516,,17-Aug,33106,2018-04-26 00:41:05:167,,,
2.0035,1.9404,7.853,0.8005,2.9153,9.3325,-1.0731,0.5935,3.0779,1.226,0.9817,0.7827,8.452,7.13,-34.22,-31.95,202.74,-17.29,-4.9,2,1006.1,57.974,30.453457,-84.31882,287.91,142.4569661,,0,27.664516,,17-Aug,33207,2018-04-26 00:41:05:268,,,
1.4138,-0.0305,12.3174,1.655,2.983,9.1977,-4.0824,2.0654,-1.7332,1.5306,-0.026,1.8737,8.452,4.7,-32.71,-32.46,199.2,-17.29,-4.9,2,1006.09,57.974,30.453457,-84.31882,287.91,142.4569661,,0,27.664516,,17-Aug,33306,2018-04-26 00:41:05:367,,,
2.7138,2.977,4.3699,3.1436,6.3137,6.8184,0.2018,1.9817,3.964,4.28,-1.2216,0.7706,8.452,-1.73,-41.5,-21.91,186.42,-26.58,-13.06,2,1006.09,55.75,30.453457,-84.31882,287.91,142.4569661,,0,27.664516,,17-Aug,33406,2018-04-26 00:41:05:467,,,
3.5076,5.9628,2.4376,4.5788,7.3618,4.5907,-0.3359,-1.9255,2.1302,1.5355,-1.3202,0.2494,8.452,-7.31,-46.55,-3.25,172.66,-47.21,-39.68,2,1006.08,55.75,30.453457,-84.31882,287.91,142.4569661,,0,27.664516,,17-Aug,33506,2018-04-26 00:41:05:567,,,
3.2151,8.8223,4.3843,5.2189,6.7556,4.8334,0.6557,-6.3947,2.9867,-0.6476,-0.3203,0.5036,8.452,-12.49,-45.09,-4.74,169.51,-43.52,-47.2,2,1006.08,55.75,30.453457,-84.31882,287.91,142.4569661,,0,27.664516,,17-Aug,33606,2018-04-26 00:41:05:667,,,
4.7228,12.9434,1.9602,6.2169,5.0533,5.6614,1.8789,-0.9319,-0.6427,-2.7966,-1.2779,-0.1635,8.452,-17.63,-42.69,-8.34,169.05,-33.99,-51.83,2,1006.08,58.662,30.453457,-84.31882,287.91,142.4569661,,0,27.664516,,17-Aug,33707,2018-04-26 00:41:05:768,,,
7.7119,6.8778,9.699,6.3779,4.5111,5.9337,-1.9358,-1.5189,-4.4211,-1.8732,0.2796,-0.8483,8.452,-14.17,-39.94,-19.6,191.75,-27.38,-47.07,2,1006.08,58.662,30.453457,-84.31882,287.91,142.4569661,,0,27.664516,,17-Aug,33806,2018-04-26 00:41:05:867,,,
2.438,1.1337,8.6987,5.5297,3.4165,7.3475,0.5503,0.0459,1.405,-0.6475,1.6959,1.3137,8.452,-11.76,-36.28,-26.77,195.66,-20.38,-36.97,2,1006.09,58.662,30.453457,-84.31882,287.91,142.4569661,,0,27.664516,,17-Aug,33907,2018-04-26 00:41:05:968,,,
5.7673,6.3758,7.7391,5.5747,3.8461,7.097,1.5032,-0.1549,0.4412,1.5159,0.0488,0.0601,8.452,-13.47,-37.56,-24.17,190.68,-23.08,-38.15,2,1006.09,58.662,30.453457,-84.31882,287.91,142.4569661,,0,27.664516,,17-Aug,34005,2018-04-26 00:41:06:066,,,
4.3981,4.7673,6.1102,5.3772,4.4704,6.8803,0.6568,-0.8056,0.6559,0.8431,0.575,0.6768,8.452,-15.35,-40.14,-19.78,181.78,-25.97,-38.65,2,1006.09,57.134,30.453457,-84.31882,287.91,142.4569661,,0,27.664516,,17-Aug,34105,2018-04-26 00:41:06:166,,,
1.3112,6.0844,4.1924,4.7685,6.1697,5.9525,3.2625,2.6271,1.9694,2.6524,0.5592,-0.2836,8.452,-13.46,-43.17,-14.41,175.32,-33.47,-36.64,2,1006.09,57.134,30.453457,-84.31882,287.91,142.4569661,,0,27.664516,,17-Aug,34206,2018-04-26 00:41:06:267,,,
6.1601,6.2373,7.7919,4.4622,6.5591,5.7709,0.7813,1.3128,-0.0403,0.4687,0.642,-0.0658,8.452,-11.83,-44.61,-8.59,170.49,-41.96,-37.71,2,1006.08,57.134,30.453457,-84.31882,287.91,142.4569661,,0,27.664516,,17-Aug,34305,2018-04-26 00:41:06:366,,,
3.5649,5.2465,5.9315,4.2442,6.9126,5.5171,-1.6043,-0.7614,1.6428,0.4928,1.3206,0.5717,8.452,-12.73,-44.5,-9.42,166.92,-42.74,-35.59,2,1006.08,54.616,30.453457,-84.31882,287.91,142.4569661,,0,27.664516,,17-Aug,34405,2018-04-26 00:41:06:466,,,
3.5172,7.3221,2.031,4.5825,7.1445,4.9187,-1.3139,1.0876,0.3701,1.2564,0.2641,1.2322,8.452,-18.31,-43.46,-2.1,148.76,-46.74,-42.97,2,1006.08,54.616,30.453457,-84.31882,287.91,142.4569661,,0,27.664516,,17-Aug,34505,2018-04-26 00:41:06:566,,,
5.42,6.3204,5.1351,5.6979,7.401,2.9992,0.149,0.3074,-1.8075,1.5082,-0.9751,0.8327,8.452,-21.87,-40.79,6.53,131.77,-48.98,-62.24,2,1006.09,54.616,30.453457,-84.31882,287.91,142.4569661,,0,27.664516,,17-Aug,34606,2018-04-26 00:41:06:667,,,
6.1899,7.1439,6.1654,6.419,7.3872,-0.6806,-2.023,0.9777,-2.9597,2.7975,-1.4011,0.5968,7.395,-22.62,-34.22,21.78,99.92,-48.85,-96.05,0,1006.09,57.242,30.453457,-84.31882,287.91,142.4569661,,0,27.664516,,17-Aug,34705,2018-04-26 00:41:06:766,,,
6.0634,5.5077,-12.4067,6.5012,7.2264,-1.3226,-1.5508,0.9409,-0.6479,-0.1156,0.6848,0.3473,7.395,-21.13,-30.08,27.37,94.34,-48.85,-96.05,0,1006.09,57.242,30.453457,-84.31882,287.91,142.4569661,,0,27.664516,,17-Aug,34806,2018-04-26 00:41:06:867,,,
7.7609,6.7767,-0.2396,6.5795,7.2492,-0.6287,1.2942,1.0207,0.7618,0.5503,1.4304,-0.3371,7.395,-24.86,-28.04,26.64,84.5,-47.26,-98.89,0,1006.08,57.242,30.453457,-84.31882,287.91,142.4569661,,0,27.664516,,17-Aug,34907,2018-04-26 00:41:06:968,,,
7.1067,8.7536,-0.6594,7.0154,6.8553,-0.1623,0.2355,-1.1669,-1.6186,-1.6877,0.8067,0.9233,7.395,-30.11,-26.4,22.7,83.02,-44.33,-91.33,0,1006.08,55.984,30.453457,-84.31882,287.91,142.4569661,,0,27.664516,,17-Aug,35006,2018-04-26 00:41:07:067,,,
5.8772,7.522,2.4544,7.2325,6.4397,1.5677,-1.5977,-1.1679,0.7579,-1.0888,1.1092,0.3782,7.395,-32.33,-28.66,16.99,96.74,-42.42,-77.66,0,1006.06,55.984,30.453457,-84.31882,287.91,142.4569661,,0,27.664516,,17-Aug,35106,2018-04-26 00:41:07:167,,,
8.4544,7.1379,0.7463,6.717,7.002,1.4454,0.8811,0.6813,0.2995,-0.3039,-0.4773,-1.7327,7.395,-30.87,-30.77,16.46,96.39,-45.54,-77.86,0,1006.06,55.984,30.453457,-84.31882,287.91,142.4569661,,0,27.664516,,17-Aug,35206,2018-04-26 00:41:07:267,,,
6.7546,6.4601,3.4979,5.6053,8.0143,0.7669,0.76,-0.2802,-1.8514,-0.0017,-1.0726,-1.4052,7.395,-24.26,-34.92,18.77,97.39,-54.78,-82.21,0,1006.06,55.984,30.453457,-84.31882,287.91,142.4569661,,0,27.664516,,17-Aug,35305,2018-04-26 00:41:07:366,,,
6.5659,7.8531,-2.461,4.3307,8.7747,-0.6966,-0.5502,-0.1466,-1.3613,0.2081,-1.3776,-1.5692,5.282,-15.28,-36.31,24.57,88.2,-63.44,-99.14,0,1006.08,58.943,30.453457,-84.31882,287.91,142.4569661,,0,27.664516,,17-Aug,35408,2018-04-26 00:41:07:469,,,
7.3562,11.0665,-0.9041,3.2359,9.197,-1.0865,-1.3258,2.5171,0.531,-0.6799,-0.7368,-2.2205,5.282,-10.39,-37.75,26,80.94,-69.64,-108.56,0,1006.07,58.943,30.453457,-84.31882,287.91,142.4569661,,0,27.664516,,17-Aug,35505,2018-04-26 00:41:07:566,,,
-1.4989,2.3028,0.6432,0.803,9.7722,0.3099,1.5706,1.6334,1.4773,-1.1849,0.8171,-2.2976,5.282,-0.48,-41.42,23.23,94.97,-79.15,-104.84,0,1006.07,58.943,30.453457,-84.31882,287.91,142.4569661,,0,27.664516,,17-Aug,35605,2018-04-26 00:41:07:666,,,
-0.6466,14.8951,-0.0765,0.6397,9.7311,1.0643,0.381,0.0855,-2.3286,-0.3565,-0.3204,-0.3029,5.282,3.31,-43.57,16.82,163.99,-82.73,-31.01,0,1006.07,58.742,30.453457,-84.31882,287.91,142.4569661,,0,27.664516,,17-Aug,35705,2018-04-26 00:41:07:766,,,
-0.3648,9.1834,4.0184,0.6995,9.7836,0.1694,-0.8024,1.3717,-1.5968,0.8965,0.0693,0.123,5.282,2.43,-40.93,21.66,115.81,-85.79,-76.38,0,1006.07,58.742,30.453457,-84.31882,287.91,142.4569661,,0,27.664516,,17-Aug,35805,2018-04-26 00:41:07:866,,,
2.1516,7.5472,-4.3237,1.3538,9.6516,-1.1183,-2.2655,0.9536,2.0815,0.4219,0.4289,0.7505,5.282,0.95,-37.02,25.5,55.28,-81.32,-137.47,0,1006.07,58.742,30.453457,-84.31882,287.91,142.4569661,,0,27.664516,,17-Aug,35906,2018-04-26 00:41:07:967,,,
3.744,9.5531,-2.1503,0.8926,9.6975,-1.1819,-2.8063,0.3219,-0.3053,-0.2095,-0.0049,-1.6502,5.282,-0.15,-37.34,26.19,46.4,-81.32,-142.94,0,1006.11,55.132,30.453457,-84.31882,287.91,142.4569661,,0,27.664516,,17-Aug,36006,2018-04-26 00:41:08:067,,,
-0.5439,13.5478,-0.8597,-0.6508,9.7238,-1.123,0.8251,4.6887,0.3645,-0.146,0.9597,-1.3372,2.113,4.53,-37.73,26.73,335.92,-82.4,149.91,0,1006.09,55.132,30.453457,-84.31882,287.91,142.4569661,,0,27.664516,,17-Aug,36105,2018-04-26 00:41:08:166,,,
0.2726,5.8773,-3.3917,-0.6414,9.6543,-1.6187,-2.8689,-1.2391,-2.0953,0.4055,-1.0162,0.0752,2.113,4.51,-34.73,27.72,345.05,-79.78,158.38,0,1006.09,55.132,30.453457,-84.31882,287.91,142.4569661,,0,27.664516,,17-Aug,36206,2018-04-26 00:41:08:267,,,
-0.3505,12.6774,-0.4723,-0.4782,9.636,-1.7763,1.025,-6.9473,-0.7512,0.1554,0.2549,0.2223,2.113,6.02,-34.98,29.27,347.93,-79.22,159.1,0,1006.08,60.919,30.453457,-84.31882,287.91,142.4569661,,0,27.664516,,17-Aug,36305,2018-04-26 00:41:08:366,,,
0.3789,7.6893,3.1956,-0.0644,9.6758,-1.6161,1.2619,-0.1456,0.7615,0.0028,-0.0155,0.3355,2.113,5.66,-35.58,29.55,358.65,-79.54,167.65,0,1006.08,60.919,30.453457,-84.31882,287.91,142.4569661,,0,27.664516,,17-Aug,36405,2018-04-26 00:41:08:466,,,
0.9841,10.2008,-1.7557,0.0698,9.6932,-1.5077,-1.935,0.0064,0.4563,-0.2767,1.2778,0.1965,2.113,2.15,-35.69,28.21,2.33,-80.51,177.72,0,1006.13,60.919,30.453457,-84.31882,287.91,142.4569661,,0,27.664516,,17-Aug,36506,2018-04-26 00:41:08:567,,,
1.9319,9.653,-1.8588,-0.1461,9.687,-1.5417,0.2981,-0.056,0.4431,0.0251,-0.519,-0.155,2.113,2.3,-35.74,27.7,4.15,-81.11,179.19,0,1006.21,60.919,30.453457,-84.31882,287.91,142.4569661,,0,27.664516,,17-Aug,36606,2018-04-26 00:41:08:667,,,
-0.4675,9.7,-1.8037,-0.0893,9.6845,-1.5614,0.7481,-0.8777,1.4715,-0.0324,0.1509,0.1391,2.113,3.12,-35.08,28.7,3.31,-80.83,176.73,0,1006.21,62.625,30.453457,-84.31882,287.91,142.4569661,,0,27.664516,,17-Aug,36707,2018-04-26 00:41:08:768,,,
0.7955,9.7373,-1.5218,-0.0913,9.7015,-1.4521,-0.0157,0.084,0.0858,-0.1048,0.2414,-0.0749,0.001,2.87,-35.62,27.97,3.15,-81.47,176.4,0,1006.31,62.625,30.453457,-84.31882,287.91,142.4569661,,0,27.664516,,17-Aug,36806,2018-04-26 00:41:08:867,,,
-0.8602,9.5603,-1.3443,-0.0866,9.7065,-1.4186,-0.235,-0.0297,0.3486,-0.0127,0.2579,0.0589,0.001,3.17,-35.99,28.02,0.25,-81.69,174.09,0,1006.29,62.625,30.453457,-84.31882,287.91,142.4569661,,0,27.664516,,17-Aug,36905,2018-04-26 00:41:08:966,,,
0.0876,9.7036,-1.6537,-0.3444,9.6999,-1.4245,-1.1342,-2.1167,0.6192,0.0253,0.1678,-0.1538,0.001,2.17,-36,28,348.1,-81.41,166.41,0,1006.29,59.121,30.453457,-84.31882,287.91,142.4569661,,0,27.664516,,17-Aug,37006,2018-04-26 00:41:09:067,,,
0.3657,10.6125,-1.0648,-1.4632,9.6225,-1.226,-0.3019,0.2285,0.3752,-0.1234,0.1421,-0.9031,0.001,4.9,-36.22,27.43,330.71,-80.75,146.48,0,1006.15,59.121,30.453457,-84.31882,287.91,142.4569661,,0,27.664516,,17-Aug,37108,2018-04-26 00:41:09:169,,,
-1.2399,8.1962,-1.7461,-2.0896,9.5236,-1.0823,-0.6252,-0.8777,-0.0042,-0.1934,0.0492,-0.8449,0.001,9.24,-36.18,27.05,299.4,-76.12,117.38,0,1006.15,59.121,30.453457,-84.31882,287.91,142.4569661,,0,27.664516,,17-Aug,37205,2018-04-26 00:41:09:266,,,
-3.8398,8.6128,-1.8181,-2.9108,9.3234,-0.9155,0.8999,1.0641,0.2091,-0.201,0.1315,-0.7285,0.001,10.12,-36.37,26.45,290.7,-73.69,111.06,0,1006.16,64.076,30.453457,-84.31882,287.91,142.4569661,,0,27.664516,,17-Aug,37306,2018-04-26 00:41:09:367,,,
-3.8792,8.2239,-1.006,-2.7281,9.376,-0.9404,-0.6763,-0.3357,0.5627,0.2259,-0.448,0.529,0.001,11.15,-35.54,25.78,289.53,-72.89,109.02,0,1006.21,64.076,30.453457,-84.31882,287.91,142.4569661,,0,27.664516,,17-Aug,37406,2018-04-26 00:41:09:467,,,
-4.2516,9.3038,-1.2783,-2.7744,9.375,-0.8051,2.1916,0.5567,0.6077,-0.1015,-0.3527,-0.227,0.001,12.74,-35.98,25.59,291.14,-72.87,106.18,0,1006.14,64.076,30.453457,-84.31882,287.91,142.4569661,,0,27.664516,,17-Aug,37506,2018-04-26 00:41:09:567,,,
-4.0881,8.9451,-0.9857,-2.539,9.4538,-0.6451,-1.5935,0.0244,0.1484,-0.1987,0.3069,0.2589,0.001,12.5,-35.59,24.93,289.07,-73.77,104.99,0,1006.14,52.518,30.453457,-84.31882,287.91,142.4569661,,0,27.664516,,17-Aug,37605,2018-04-26 00:41:09:666,,,
-1.6505,9.9468,-0.3655,-2.6046,9.4395,-0.5906,-0.8825,-0.5995,-0.153,-0.0269,-0.1978,-0.1267,0.001,10.44,-36.78,25.22,281.8,-74.2,102.78,0,1006.11,52.518,30.453457,-84.31882,287.91,142.4569661,,0,27.664516,,17-Aug,37706,2018-04-26 00:41:09:767,,,
-2.1519,9.2894,-0.6114,-2.5658,9.4595,-0.4144,0.2109,-0.291,-0.1767,-0.063,-0.3856,0.0725,0.001,11.64,-37.68,23.59,284.13,-74.01,101.23,0,1006.11,52.518,30.453457,-84.31882,287.91,142.4569661,,0,27.664516,,17-Aug,37808,2018-04-26 00:41:09:869,,,
-2.1375,9.1594,-0.4987,-2.476,9.4877,-0.3003,0.5241,0.4791,0.1266,-0.1386,-0.4469,-0.0451,0.001,12.92,-37.01,22.45,285.54,-75.27,96.92,0,1006.13,52.518,30.453457,-84.31882,287.91,142.4569661,,0,27.664516,,17-Aug,37905,2018-04-26 00:41:09:966,,,
-3.7992,9.0739,-0.0681,-2.4357,9.5025,0.0802,1.4357,2.1159,1.1063,-0.2086,-0.4627,0.0879,0.001,13.46,-37.56,22.86,279.79,-75.03,92.9,0,1006.2,44.037,30.453457,-84.31882,287.91,142.4569661,,0,27.664516,,17-Aug,38006,2018-04-26 00:41:10:067,,,
-4.1155,8.0072,-0.639,-2.1615,9.5486,0.6225,2.0133,0.081,1.3636,-0.546,0.1131,0.2669,0.001,13.22,-39.41,20.61,270.32,-76.13,81.53,0,1006.23,44.037,30.453457,-84.31882,287.91,142.4569661,,0,27.664516,,17-Aug,38105,2018-04-26 00:41:10:166,,,
-3.4244,9.1425,-0.17,-2.1002,9.5559,0.7144,1.5753,-0.2818,1.0989,-0.2468,0.34,-0.1982,0.001,11.72,-40.84,19.07,259.21,-76.93,71.21,0,1006.23,44.037,30.453457,-84.31882,287.91,142.4569661,,0,27.664516,,17-Aug,38205,2018-04-26 00:41:10:266,,,
-4.5596,12.4883,1.0498,-2.6001,9.4302,0.7394,0.3226,-3.9483,-0.1262,-0.1617,0.4236,-0.472,0.001,11.83,-40.3,19.75,257.03,-74.01,74.13,0,1006.17,42.051,30.453457,-84.31882,287.91,142.4569661,,0,27.664516,,17-Aug,38305,2018-04-26 00:41:10:366,,,
-2.5124,12.557,1.5656,-2.67,9.4334,0.3444,-1.5877,-1.1431,-0.289,1.0097,-0.0339,-0.1962,0.001,11.77,-39.78,19.51,264.67,-74.07,82.65,0,1006.17,42.051,30.453457,-84.31882,287.91,142.4569661,,0,27.664516,,17-Aug,38406,2018-04-26 00:41:10:467,,,Out
-0.5881,9.2966,-0.5886,-2.9506,9.2992,-1.0274,0.8397,0.3394,0.0035,1.1841,0.0548,-0.3343,0.001,12.97,-36.79,24.81,280.77,-73.15,96.72,0,1006.07,42.051,30.453457,-84.31882,287.91,142.4569661,,0,27.664516,,17-Aug,38505,2018-04-26 00:41:10:566,,,Out
-2.0898,8.9101,-1.8456,-2.6846,9.2643,-1.7894,-2.7611,1.1047,0.2765,0.6422,-0.0326,0.3026,0.001,10.82,-34.02,28.1,300.07,-71.59,118.68,0,1006,51.738,30.453457,-84.31882,287.91,142.4569661,,0,27.664516,,17-Aug,38605,2018-04-26 00:41:10:666,,,Out
0.0709,8.1613,-1.8492,-2.9444,9.1774,-1.828,0.954,3.2487,1.268,0.2345,-0.1021,-0.3407,0.001,11.24,-32.83,29.41,305.75,-70.8,123.69,0,1006,51.738,30.453457,-84.31882,287.91,142.4569661,,0,27.664516,,17-Aug,38705,2018-04-26 00:41:10:766,,,Out
-4.2051,6.9236,-2.9779,-3.2451,9.0842,-1.7842,1.0863,-0.6588,1.2016,-0.1184,0.4798,-0.2539,0.001,12.14,-32.89,30.09,300.08,-68.41,120.19,0,1006.05,51.738,30.453457,-84.31882,287.91,142.4569661,,0,27.664516,,17-Aug,38805,2018-04-26 00:41:10:866,,,Out
-5.3033,11.5962,-3.5932,-3.1974,9.0691,-1.9403,-0.5083,-4.0456,1.5888,0.0831,-0.0259,0.2107,0.001,12.27,-32.8,30.56,300.14,-67.59,121.25,0,1006.29,51.533,30.453457,-84.31882,287.91,142.4569661,,0,27.664516,,17-Aug,38905,2018-04-26 00:41:10:966,,,Out
-0.415,8.2179,-1.4066,-2.9275,9.1915,-1.7838,-0.9693,1.0973,-1.0542,0.0275,-0.4859,0.332,0.001,12.13,-32.47,29.69,303.95,-69.55,121.36,0,1006.29,51.533,30.453457,-84.31882,287.91,142.4569661,,0,27.664516,,17-Aug,39006,2018-04-26 00:41:11:067,,,Out
-2.0146,8.0625,-0.6138,-2.809,9.271,-1.5473,-1.2852,-0.974,-1.8745,-0.1035,-0.5683,0.3045,0.001,12.64,-32.99,28.47,304.91,-70.92,118.85,0,1006.16,51.533,30.453457,-84.31882,287.91,142.4569661,,0,27.664516,,17-Aug,39105,2018-04-26 00:41:11:166,,,Out
-2.8347,8.9306,0.1634,-2.7313,9.357,-1.1058,-0.076,-0.1775,-1.3071,-0.1852,-0.7683,0.1296,0.001,13.55,-34.69,26.3,300.66,-72.52,112.04,0,1006.1,51.533,30.453457,-84.31882,287.91,142.4569661,,0,27.664516,,17-Aug,39206,2018-04-26 00:41:11:267,,,Out
-3.0495,9.5747,-0.5742,-2.5958,9.43,-0.7566,0.3952,1.9178,-0.0623,-0.1664,-0.3867,0.1684,0.001,14.74,-35.55,25.07,299.91,-72.98,108.96,0,1006.1,50.676,30.453457,-84.31882,287.91,142.4569661,,0,27.664516,,17-Aug,39305,2018-04-26 00:41:11:366,,,Out
-3.0818,8.8391,-0.8273,-2.3193,9.5093,-0.6553,0.0255,0.0495,1.0107,-0.0575,-0.1283,0.4337,0.001,14.49,-36.09,23.73,296.3,-74,106.25,0,1006.13,50.676,30.453457,-84.31882,287.91,142.4569661,,0,27.664516,,17-Aug,39406,2018-04-26 00:41:11:467,,,Out
-2.2927,9.4543,-1.5374,-2.1421,9.5637,-0.4271,0.8311,0.9675,1.5028,-0.196,-0.024,0.0867,0.001,13.95,-37.3,24.51,299.5,-76.93,105.93,0,1006.11,50.676,30.453457,-84.31882,287.91,142.4569661,,0,27.664516,,17-Aug,39505,2018-04-26 00:41:11:566,,,Out
-2.9922,12.8844,2.4807,-2.4185,9.5021,-0.311,-0.8213,-3.2328,-1.9435,0.2996,0.4678,-0.7478,0.001,13.75,-36.5,23.04,288.64,-75.61,97.33,0,1006.11,50.065,30.453457,-84.31882,287.91,142.4569661,,0,27.664516,,17-Aug,39605,2018-04-26 00:41:11:666,,,Out
-0.834,11.223,0.0099,-3.2174,9.1893,-1.2007,1.1728,-0.4349,0.4371,0.7906,0.0389,-0.6579,0.001,16.34,-34.07,26.26,299.59,-69.51,110.46,0,1006.07,50.065,30.453457,-84.31882,287.91,142.4569661,,0,27.664516,,17-Aug,39706,2018-04-26 00:41:11:767,,,Out
-3.7777,8.4442,-1.3179,-3.3017,8.9615,-2.2419,-2.4143,0.929,0.3118,0.5618,1.1186,-0.1129,0.001,15.94,-31.83,28.75,305.61,-67.13,117.74,0,1006.07,50.065,30.453457,-84.31882,287.91,142.4569661,,0,27.664516,,17-Aug,39805,2018-04-26 00:41:11:866,,,Out
-0.945,8.006,-2.4166,-3.3475,8.9042,-2.3972,-1.0024,2.6446,0.4664,-0.2387,0.221,-0.1132,0.001,14.13,-30.34,31.36,309.63,-65.18,125.61,0,1006.05,57.277,30.453457,-84.31882,287.91,142.4569661,,0,27.664516,,17-Aug,39905,2018-04-26 00:41:11:966,,,Out
-3.0925,5.9339,-3.3174,-3.2392,9.0175,-2.1043,-0.1906,-0.0471,-0.1913,-0.4574,0.1234,0.104,0.001,12.94,-31.76,30.9,303.94,-65.91,123.68,0,1006.06,57.277,30.453457,-84.31882,287.91,142.4569661,,0,27.664516,,17-Aug,40006,2018-04-26 00:41:12:067,,,Out
-3.7753,14.3774,-1.9188,-3.344,8.975,-2.1219,1.2431,-2.2232,1.0436,0.6836,-0.1861,-0.151,0.001,12.58,-31.3,31.67,305.02,-66.81,123.01,0,1006.33,57.277,30.453457,-84.31882,287.91,142.4569661,,0,27.664516,,0 / 17,40106,2018-04-26 00:41:12:167,,,Out
-4.112,10.4777,-3.5764,-3.2131,8.9398,-2.4478,-0.5868,-1.945,-1.1279,0.1242,0.0923,0.1433,0.001,12.17,-30.46,31.83,304.35,-64.75,125.8,0,1006.33,52.362,30.453457,-84.31882,287.91,142.4569661,,0,27.664516,,0 / 17,40205,2018-04-26 00:41:12:266,,,Out
-1.8463,6.0603,-0.8453,-3.0513,9.0407,-2.2785,0.2049,-2.8733,-1.8828,-0.4317,-0.0502,0.2344,0.001,12.39,-30.81,30.65,308.25,-67.16,126.75,0,1006.14,52.362,30.453457,-84.31882,287.91,142.4569661,,0,27.664516,,0 / 17,40305,2018-04-26 00:41:12:366,,,Out
-2.3524,10.5704,-0.0885,-2.808,9.2433,-1.7067,-0.4045,0.9364,-1.2902,-0.2544,-0.536,0.2902,0.284,11.68,-32.79,28.65,304.61,-70.43,121.29,0,1006.14,52.362,30.453457,-84.31882,287.91,142.4569661,,0,27.664516,,0 / 17,40406,2018-04-26 00:41:12:467,,,Out
-2.6162,9.5771,-0.7578,-2.665,9.3811,-1.0628,0.0924,1.2107,0.1408,-0.4774,-0.1408,0.1307,0.284,13.35,-33.99,27.94,302.04,-71.81,116.06,0,1006.1,52.362,30.453457,-84.31882,287.91,142.4569661,,0,27.664516,,0 / 17,40505,2018-04-26 00:41:12:566,,,Out
-3.2011,8.514,-0.8705,-2.5311,9.4402,-0.8445,0.6667,1.1341,0.5078,0.7464,-1.2943,-0.7186,0.284,11.84,-36.09,25.82,293.52,-74.22,108.45,0,1006.11,47.93,30.453457,-84.31882,287.91,142.4569661,,0,27.664516,,0 / 17,40606,2018-04-26 00:41:12:667,,,Out
-8.0942,9.5434,-0.9437,-3.3373,9.1563,-1.1227,-3.9028,0.1128,1.5907,0.6103,-1.3125,0.0488,0.284,17.92,-33.33,26.92,301.39,-68.97,108.59,0,1006.09,47.93,30.453457,-84.31882,287.91,142.4569661,,0,27.664516,,0 / 17,40706,2018-04-26 00:41:12:767,,,Out
-1.2076,8.9812,-1.6118,-4.22,8.8179,-0.8195,10.8959,0.2825,3.1527,-0.07,0.0463,-0.2615,0.284,20.34,-31.78,24.45,291.4,-64.01,100.99,0,1006.09,47.93,30.453457,-84.31882,287.91,142.4569661,,0,27.664516,,0 / 17,40805,2018-04-26 00:41:12:866,,,Out
0.4994,9.9877,0.9634,-4.1791,8.7706,-1.3598,-0.9696,-0.6486,2.4168,0.1411,1.0208,0.0562,0.284,19.16,-31.49,26.17,293.44,-67.27,100.43,0,1005.97,65.551,30.453457,-84.31882,287.91,142.4569661,,0,27.664516,,0 / 17,40906,2018-04-26 00:41:12:967,,,Out
-6.5006,6.8261,-2.5149,-4.3027,8.6144,-1.8747,-3.3656,-3.8444,0.6514,0.5039,-0.0766,-0.0609,0.284,20.14,-28.16,29.22,302.91,-62.06,111.52,0,1005.97,65.551,30.453457,-84.31882,287.91,142.4569661,,0,27.664516,,0 / 17,41005,2018-04-26 00:41:13:066,,,Out
-1.7925,8.8451,-1.7413,-4.8047,8.3282,-1.9474,0.7002,1.5428,-0.0701,0.1268,-0.1116,-0.7917,0.001,22.12,-26.26,29.61,303.91,-58.1,112.06,0,1005.72,65.551,30.453457,-84.31882,287.91,142.4569661,,0,27.664516,,0 / 17,41105,2018-04-26 00:41:13:166,,,Out
-3.6022,8.0565,-2.2019,-5.2815,8.0533,-1.8671,2.5633,1.3586,-1.3513,-0.7231,0.8605,-0.5625,0.001,22.78,-25.94,29.38,301.81,-55.99,110.69,0,1005.61,66.131,30.453457,-84.31882,287.91,142.4569661,,0,27.664516,,0 / 17,41205,2018-04-26 00:41:13:266,,,Out
-1.9608,14.2305,-5.7462,-6.0013,7.6267,-1.4333,-3.674,-8.892,-2.5421,0.5602,-0.6467,-0.8109,0.001,23.35,-27.08,28.7,283.87,-51.03,103.43,0,1005.61,66.131,30.453457,-84.31882,287.91,142.4569661,,0,27.664516,,0 / 17,41305,2018-04-26 00:41:13:366,,,Out
2.6887,3.1323,-1.6993,-7.0813,6.7525,0.7043,-6.9933,1.6432,-2.3032,-2.8572,-2.7578,-0.7044,0.001,30.78,-28.45,20.22,268.9,-43.5,84.32,0,1006.27,66.131,30.453457,-84.31882,287.91,142.4569661,,0,27.664516,,0 / 17,41405,2018-04-26 00:41:13:466,,,Out
0.084,5.2814,3.3611,-7.1675,5.7811,3.3825,-9.9891,3.3699,-1.9613,-1.2895,-3.8936,-0.921,0.001,42.46,-17.28,9.77,282.81,-36.11,64.74,2,1005.99,71.089,30.453457,-84.31882,287.91,142.4569661,,0,27.664516,,0 / 17,41505,2018-04-26 00:41:13:566,,,
1.8125,3.2575,5.8404,-5.9099,6.7847,3.9085,-8.8148,1.7965,-2.4033,1.1795,-2.7193,0.9273,0.001,41.83,-18.33,3.46,288.95,-36.11,64.74,2,1005.99,71.089,30.453457,-84.31882,287.91,142.4569661,,0,27.664516,,0 / 17,41605,2018-04-26 00:41:13:666,,,
2.3425,9.1245,8.3664,-2.2635,8.8158,3.6599,-4.9956,-5.5115,-4.1277,1.3096,-1.6669,2.6924,0.001,34.12,-31.16,-2.7,276.99,-53.93,44.44,2,1005.88,71.089,30.453457,-84.31882,287.91,142.4569661,,0,27.664516,,0 / 17,41707,2018-04-26 00:41:13:768,,,
-1.1921,13.4539,8.5691,-0.4716,9.0949,3.6464,4.0687,-3.5645,-7.6478,-0.1705,-3.3293,1.0843,10.564,26.05,-37.84,-8.72,263.34,-67.99,7.37,2,1005.88,71.089,30.453457,-84.31882,287.91,142.4569661,,0,27.664516,,0 / 17,41805,2018-04-26 00:41:13:866,,,
-4.8628,11.1832,12.0499,1.1331,8.7455,4.2975,4.5869,-0.105,-6.1815,-0.6882,-2.1006,0.4007,10.564,22.2,-38.7,-14.02,255.87,-66.27,-8.5,2,1005.92,49.247,30.453457,-84.31882,287.91,142.4569661,,0,27.664516,,0 / 17,41908,2018-04-26 00:41:13:969,,,
-1.0703,10.7016,9.4099,1.2619,8.4144,4.8828,1.2288,-2.7172,-3.1514,-1.1422,0.6833,-0.0637,10.564,20.84,-37.98,-20.46,253.65,-59.06,-14.49,2,1005.92,49.247,30.453457,-84.31882,287.91,142.4569661,,0,27.664516,,0 / 17,42006,2018-04-26 00:41:14:067,,,
1.9629,10.4452,5.0931,0.2185,7.9517,5.7409,-1.6372,0.2922,3.1637,-0.7049,0.8057,-0.6466,10.564,23.71,-33.49,-22.14,264.83,-54.15,-2.18,2,1005.92,49.247,30.453457,-84.31882,287.91,142.4569661,,0,27.664516,,0 / 17,42105,2018-04-26 00:41:14:166,,,
0.0279,5.9484,2.386,-0.56,7.7834,5.9448,0.1632,1.7991,4.4461,-0.2931,0.3318,-0.4639,10.564,27.18,-31.98,-21.93,269.79,-52.51,5.38,2,1005.95,42.756,30.453457,-84.31882,287.91,142.4569661,,0,27.664516,,0 / 17,42205,2018-04-26 00:41:14:266,,,
-0.2741,5.5896,1.6076,-0.8941,7.8439,5.8232,-10.8635,-0.65,5.6032,-0.4076,-1.3929,-0.7931,10.564,28.14,-30.8,-21.89,275.09,-53.09,8.73,2,1006.01,42.756,30.453457,-84.31882,287.91,142.4569661,,0,27.664516,,0 / 17,42305,2018-04-26 00:41:14:366,,,
8.15,7.6002,-0.639,2.2712,7.3666,6.0672,-8.9221,0.4326,2.208,-1.038,-4.48,0.069,10.564,22.12,-26.85,-30.83,287.33,-49.89,1.2,2,1006.01,42.756,30.453457,-84.31882,287.91,142.4569661,,0,27.664516,,0 / 17,42405,2018-04-26 00:41:14:466,,,
10.171,13.4335,4.4466,4.3817,8.0068,3.5955,-6.1201,-2.948,-4.0933,3.8098,-3.2717,2.1257,42.258,0.39,-38.83,-26.41,245.71,-54.71,-50.63,2,1006.07,57.978,30.453457,-84.31882,287.91,142.4569661,,0,27.664516,,0 / 17,42505,2018-04-26 00:41:14:566,,,
11.1212,10.9412,6.7016,6.7736,6.9334,-1.5104,-0.1906,-1.3755,-7.1455,3.7707,-2.2243,2.3456,42.258,-8.43,-43.99,-17.45,219.25,-51.63,-82.87,2,1006.07,57.978,30.453457,-84.31882,287.91,142.4569661,,0,27.664516,,0 / 17,42606,2018-04-26 00:41:14:667,,,
7.7203,7.3016,4.6601,5.9268,7.6508,-1.6045,-2.448,1.6087,-5.2295,-2.8479,-2.7288,-0.4569,42.258,-15.32,-43.05,-8.82,211.08,-45.53,-108.21,2,1006.07,57.978,30.453457,-84.31882,287.91,142.4569661,,0,27.664516,,0 / 17,42705,2018-04-26 00:41:14:766,,,
8.612,4.3315,2.6619,5.6865,7.8942,-1.2572,-2.4318,-0.6343,-9.4286,-0.7434,-3.0884,1.4626,42.258,-19.15,-38.01,-19.49,244.24,-53.58,-102.47,2,1006.07,48.227,30.453457,-84.31882,287.91,142.4569661,,0,27.664516,,0 / 17,42805,2018-04-26 00:41:14:866,,,
3.6055,16.9864,15.8149,7.7723,5.6431,-1.9958,2.7737,-9.8531,-10.2195,2.9172,1.1171,2.7757,42.258,-30.92,-33.07,-13.1,240.3,-35.12,-104.4,2,1006.18,48.227,30.453457,-84.31882,287.91,142.4569661,,0,27.664516,,0 / 17,42906,2018-04-26 00:41:14:967,,,
6.7665,12.6786,4.954,7.5353,6.2752,-0.278,-0.3061,1.5669,-3.6967,-0.9412,2.821,-1.8523,42.258,-26.28,-34.62,-16.83,239.24,-39.77,-92.11,2,1006.18,48.227,30.453457,-84.31882,287.91,142.4569661,,0,27.664516,,0 / 17,43005,2018-04-26 00:41:15:066,,,
7.9662,6.0736,3.6382,5.394,7.3935,3.5322,-2.3614,0.937,0.4086,-1.204,3.4689,-1.6113,42.258,-11.17,-35.97,-28.64,243.83,-45.9,-76.99,2,1006.1,48.227,30.453457,-84.31882,287.91,142.4569661,,0,27.664516,,0 / 17,43105,2018-04-26 00:41:15:166,,,
8.0605,6.6611,1.4864,4.0731,7.2144,5.2533,-3.2753,3.1835,3.536,-2.0054,1.6655,-1.557,42.258,4.96,-28.52,-37.05,269.14,-47.34,-37.79,2,1006.04,53.162,30.453457,-84.31882,287.91,142.4569661,,0,27.664516,,0 / 17,43206,2018-04-26 00:41:15:267,,,
5.1955,3.8101,4.858,2.8364,6.2621,6.9984,-6.2672,-2.3025,1.0255,-1.3923,0.8896,-0.1383,23.242,10.42,-21.97,-38.64,278.89,-39.67,-22.06,2,1006.04,53.162,30.453457,-84.31882,287.91,142.4569661,,0,27.664516,,0 / 17,43305,2018-04-26 00:41:15:366,,,
10.3477,9.5555,4.2835,2.498,3.9293,8.6346,-7.2111,-4.8929,6.6913,-2.7057,0.3349,-0.0538,23.242,15.44,-19.08,-39.55,280.14,-34.4,-13.61,2,1006.02,53.162,30.453457,-84.31882,287.91,142.4569661,,0,27.664516,,0 / 17,43406,2018-04-26 00:41:15:467,,,
7.7645,7.3667,3.9825,3.9517,3.3532,8.3292,-1.9015,1.3826,2.7875,-0.4142,-4.2238,-2.6772,23.242,4.44,-3.71,-46.07,292.91,-19.99,-25.38,2,1006.04,51,30.453457,-84.31882,287.91,142.4569661,,0,27.664516,,0 / 17,43505,2018-04-26 00:41:15:566,,,
4.7145,0.0585,11.0352,6.0604,6.0521,4.7834,0.7595,-0.9353,-8.7328,3.05,-2.8417,-0.7779,23.242,-11.35,-15.98,-41.85,288.57,-38.09,-51.72,2,1006.04,51,30.453457,-84.31882,287.91,142.4569661,,0,27.664516,,0 / 17,43606,2018-04-26 00:41:15:667,,,
5.2314,6.7984,13.8347,5.9192,7.4038,2.5265,-0.1623,-0.0926,-6.3492,2.4045,0.6056,-0.1047,23.242,-11.59,-29.03,-33.28,267.95,-49,-66.89,0,1006.06,51,30.453457,-84.31882,287.91,142.4569661,,0,27.664516,,0 / 17,43705,2018-04-26 00:41:15:766,,,
5.9416,6.5877,8.0294,5.8143,6.8326,3.9681,0.4033,0.2978,-2.3659,-1.5158,1.2333,0.4776,23.242,-8.72,-30.66,-33.42,259.5,-44.15,-55.69,0,1006.04,51.944,30.453457,-84.31882,287.91,142.4569661,,0,27.664516,,0 / 17,43806,2018-04-26 00:41:15:867,,,
6.0658,7.9855,5.0787,4.3565,6.6125,5.7907,-2.2557,0.1869,1.6995,-0.2744,2.5009,-0.157,23.242,-0.49,-27.02,-37.12,264.68,-42.64,-46.11,0,1006.04,51.944,30.453457,-84.31882,287.91,142.4569661,,0,27.664516,,0 / 17,43906,2018-04-26 00:41:15:967,,,
4.9866,5.7413,2.5155,4.1609,6.522,6.0321,1.2857,-0.8154,1.4414,0.347,0.1338,0.6489,23.242,4.34,-28.7,-36.97,263.14,-41.67,-34.6,0,1006.05,51.944,30.453457,-84.31882,287.91,142.4569661,,0,27.664516,,0 / 17,44005,2018-04-26 00:41:16:066,,,
2.9203,7.3004,4.6361,4.5603,6.6527,5.5841,2.8703,-2.3233,-2.3421,0.5038,-0.5027,0.1654,23.242,2.63,-29.19,-36.14,261.31,-42.12,-38.09,0,1006.07,47.641,30.453457,-84.31882,287.91,142.4569661,,0,27.664516,,0 / 17,44105,2018-04-26 00:41:16:166,,,
1.5773,7.7194,7.7331,4.4305,6.1857,6.1923,2.3411,-1.3816,-0.2329,-1.565,0.4085,-0.0976,23.242,2.55,-26.19,-38.22,265.82,-39.09,-35.58,0,1006.07,47.641,30.453457,-84.31882,287.91,142.4569661,,0,27.664516,,0 / 17,44208,2018-04-26 00:41:16:269,,,
2.3031,7.097,6.247,3.9425,5.6924,6.9491,0.6274,-1.3676,-0.3882,-0.7467,0.2049,-0.4575,23.242,5.44,-21.68,-41.32,273.13,-35.47,-29.57,0,1006.06,47.641,30.453457,-84.31882,287.91,142.4569661,,0,27.664516,,0 / 17,44308,2018-04-26 00:41:16:369,,,
3.0982,6.4877,9.0513,3.2666,5.8843,7.1372,-1.6038,-0.188,-1.0763,-0.3626,-0.1053,-1.0827,23.242,5.09,-19.98,-41.19,278.5,-36,-28.55,0,1006.06,47.641,30.453457,-84.31882,287.91,142.4569661,,0,27.664516,,0 / 17,44405,2018-04-26 00:41:16:466,,,
4.9162,6.023,8.292,2.8448,5.7585,7.4151,-0.5898,1.1162,-0.7594,-0.8312,0.1468,-0.4603,23.242,9.07,-17.29,-42.38,287.43,-35.94,-20.99,0,1006.05,34.984,30.453457,-84.31882,287.91,142.4569661,,0,27.664516,,0 / 17,44505,2018-04-26 00:41:16:566,,,
1.9343,5.4138,9.6702,2.0729,5.1928,8.0607,0.3994,0.3465,-1.0051,-0.6644,0.6039,-0.295,23.242,10.89,-13.18,-43.27,291.63,-33.42,-18.79,0,1006.05,34.984,30.453457,-84.31882,287.91,142.4569661,,0,27.664516,,0 / 17,44605,2018-04-26 00:41:16:666,,,
2.1205,4.7179,8.4252,1.3967,4.9142,8.3747,-0.9788,0.6587,0.9209,-0.8928,0.986,-0.2755,14.79,16.43,-9.37,-42.52,297.97,-30.06,-9.47,0,1006.07,34.984,30.453457,-84.31882,287.91,142.4569661,,0,27.664516,,0 / 17,44705,2018-04-26 00:41:16:766,,,
1.1166,3.6536,7.7559,0.5347,4.1436,8.8759,-0.4778,0.6196,0.6129,-0.7946,0.569,-0.2407,14.79,18.15,-7,-42.33,297.76,-26.54,-5.68,0,1006.07,32.725,30.453457,-84.31882,287.91,142.4569661,,0,27.664516,,0 / 17,44805,2018-04-26 00:41:16:866,,,
0.8408,3.4971,8.3796,0.1142,3.9125,8.9953,-0.4341,-0.2191,1.1422,-0.185,0.1535,-0.5387,14.79,21.04,-5.21,-41.83,300.86,-25.1,-1.25,0,1006.06,32.725,30.453457,-84.31882,287.91,142.4569661,,0,27.664516,,0 / 17,44907,2018-04-26 00:41:16:968,,,
0.7668,3.3707,7.8063,0.2667,3.3492,9.2167,-0.6448,0.2678,1.1288,-0.9141,-0.4091,-0.124,14.79,20.26,-0.77,-41.84,301.89,-19.96,-1.66,0,1006.06,32.725,30.453457,-84.31882,287.91,142.4569661,,0,27.664516,,0 / 17,45006,2018-04-26 00:41:17:067,,,
1.2753,3.4718,8.3724,0.6076,2.7677,9.3918,-1.2765,-0.3073,1.1444,-0.4822,-0.3528,-0.2999,14.79,18.5,2.09,-42.77,304.24,-17.31,-2.91,0,1006.07,30.554,30.453457,-84.31882,287.91,142.4569661,,0,27.664516,,0 / 17,45107,2018-04-26 00:41:17:168,,,
1.7791,3.1203,8.274,0.5688,2.9762,9.3303,-0.8757,-0.8125,0.7885,0.5591,-0.0468,-0.7277,14.79,17.85,2.99,-42.81,307.07,-17.66,-3.49,0,1006.06,30.554,30.453457,-84.31882,287.91,142.4569661,,0,27.664516,,0 / 17,45205,2018-04-26 00:41:17:266,,,
0.3048,4.5939,9.1017,0.7892,3.0318,9.2963,0.0376,-0.5812,0.3277,0.0154,-0.4017,-0.6154,14.79,16.48,2.91,-43.2,312.89,-19.81,-3.21,0,1006.07,30.554,30.453457,-84.31882,287.91,142.4569661,,0,27.664516,,0 / 17,45306,2018-04-26 00:41:17:367,,,
0.7059,3.7114,8.8414,1.3734,2.2322,9.4534,-0.1309,-0.377,-0.0812,-0.8112,0.0267,-0.0236,5.282,13.14,8.51,-44.09,313.56,-13.15,-8.27,0,1006.07,41.311,30.453457,-84.31882,287.91,142.4569661,,0,27.664516,,0 / 17,45405,2018-04-26 00:41:17:466,,,
1.156,2.1872,8.6315,0.9228,1.9826,9.5632,0.3784,-1.0514,2.9172,-0.1864,0.213,0.0299,5.282,14.25,9.54,-44.3,313.89,-11.63,-6.65,0,1006.08,41.311,30.453457,-84.31882,287.91,142.4569661,,0,27.664516,,0 / 17,45505,2018-04-26 00:41:17:566,,,
0.6391,2.3606,8.9769,0.335,3.4227,9.1874,-0.2443,0.5404,3.131,1.1369,0.0623,-0.1897,5.282,17.46,3.64,-43.67,316.27,-18.59,-0.05,0,1006.08,41.311,30.453457,-84.31882,287.91,142.4569661,,0,27.664516,,0 / 17,45605,2018-04-26 00:41:17:666,,,
-1.1945,4.004,11.1851,-0.1009,3.1423,9.2926,-0.2739,1.4775,-2.3719,-0.6325,0.8397,-0.9678,5.282,18.41,4.65,-42.76,316.65,-18.68,0.62,0,1006.06,41.311,30.453457,-84.31882,287.91,142.4569661,,0,27.664516,,0 / 17,45706,2018-04-26 00:41:17:767,,,
-0.2383,1.3215,12.3905,-1.9344,3.2994,9.0337,3.9077,6.76,1.3726,0.5878,1.418,-1.2014,5.282,19.78,7.22,-41.2,320.41,-17.36,5.39,0,1006.03,53.947,30.453457,-84.31882,287.91,142.4569661,,0,27.664516,,0 / 17,45805,2018-04-26 00:41:17:866,,,
-4.4701,-2.0099,8.4756,-2.5259,3.5615,8.7847,2.5233,5.6498,-0.0608,0.551,1.6002,0.2292,5.282,26.33,4.52,-39.2,325.76,-21.29,16.04,2,1006.03,53.947,30.453457,-84.31882,287.91,142.4569661,,0,27.664516,,0 / 17,45905,2018-04-26 00:41:17:966,,,
-4.7243,-1.9424,7.8219,-3.916,4.081,8.0154,-3.2783,1.4021,1.5674,0.8489,1.1104,-0.3397,5.282,31.39,1.93,-33.15,326,-24.58,26.04,2,1006.03,53.947,30.453457,-84.31882,287.91,142.4569661,,0,27.664516,,0 / 17,46007,2018-04-26 00:41:18:068,,,
-2.7953,2.0981,8.027,-4.7326,2.6682,8.1682,1.2977,1.2547,-2.4363,0.6811,-0.9876,-4.0948,5.282,28.95,10.28,-36.47,342.67,-22,28.62,2,1006.04,53.392,30.453457,-84.31882,287.91,142.4569661,,0,27.664516,,0 / 17,46105,2018-04-26 00:41:18:166,,,
-6.873,1.6586,11.1887,-4.7104,1.9052,8.3916,2.9889,1.2618,-0.3455,1.4214,-1.6394,-4.5959,5.282,23.58,15.9,-38.37,356.44,-15.78,30.09,2,1006.04,53.392,30.453457,-84.31882,287.91,142.4569661,,0,27.664516,,0 / 17,46205,2018-04-26 00:41:18:266,,,
-7.5332,0.1079,9.2396,-3.6924,1.2274,9.0053,3.3833,1.0506,-0.423,1.4249,-1.7008,-4.0933,5.282,8.03,16.69,-43.68,27.69,-8.2,25.94,2,1006.06,53.392,30.453457,-84.31882,287.91,142.4569661,,0,27.664516,,0 / 17,46305,2018-04-26 00:41:18:366,,,
-7.3064,0.5714,10.1608,-3.3636,1.4629,9.0985,3.2331,0.3393,-0.4004,1.9424,-0.5989,-2.8679,5.282,-2.88,9.24,-46.51,51.29,-8.58,20.29,2,1006.06,55.91,30.453457,-84.31882,287.91,142.4569661,,0,27.664516,,0 / 17,46406,2018-04-26 00:41:18:467,,,
-6.1938,3.3346,7.5364,-3.9186,2.5706,8.6182,2.6025,-1.231,0.1403,1.8984,0.1043,-2.1264,5.282,-2.87,-1.87,-46.05,68.18,-15.19,24.45,2,1006.07,55.91,30.453457,-84.31882,287.91,142.4569661,,0,27.664516,,0 / 17,46505,2018-04-26 00:41:18:566,,,
-6.2977,4.0557,8.7178,-4.3538,2.9349,8.2866,2.1106,-1.1909,0.5784,0.4865,0.0549,-0.6003,5.282,-2.39,-5.99,-45.94,75.06,-17.41,27.72,2,1006.07,55.91,30.453457,-84.31882,287.91,142.4569661,,0,27.664516,,0 / 17,46605,2018-04-26 00:41:18:666,,,
-5.9288,3.7379,8.6699,-4.0005,3.2607,8.3427,-2.3944,-0.7221,0.6472,1.3756,0.0738,-0.8589,5.282,-4.15,-7.7,-45.4,76.9,-19.41,25.62,2,1006.07,51.405,30.453457,-84.31882,287.91,142.4569661,,0,27.664516,,0 / 17,46705,2018-04-26 00:41:18:766,,,
-1.8558,3.3767,4.7549,-4.1094,4.032,7.943,-0.3956,1.0696,2.3189,1.229,-0.2554,-0.9074,5.282,-2.98,-15.48,-44.85,84.65,-24.27,27.36,2,1006.07,51.405,30.453457,-84.31882,287.91,142.4569661,,0,27.664516,,0 / 17,46806,2018-04-26 00:41:18:867,,,
-3.9233,2.8903,5.6773,-3.5657,4.0199,8.2075,1.3664,1.4592,-2.0319,-0.0273,-0.6001,-0.3182,42.258,-6.37,-16.11,-43.19,90.05,-24.27,27.36,2,1006.07,51.405,30.453457,-84.31882,287.91,142.4569661,,0,27.664516,,0 / 17,46905,2018-04-26 00:41:18:966,,,
-3.8971,2.5857,9.771,-3.8774,3.7743,8.1827,-1.084,1.0297,-0.0627,0.0662,0.2926,-0.326,42.258,-7.39,-16.56,-43.73,90.93,-23.78,23.37,2,1006.07,51.405,30.453457,-84.31882,287.91,142.4569661,,0,27.664516,,0 / 17,47005,2018-04-26 00:41:19:066,,,
-3.3074,2.8349,8.5907,-4.1454,3.2809,8.2636,0.3785,0.0629,-1.6124,-0.2386,-0.0233,-1.3244,42.258,-3.54,-15.77,-44.76,95.35,-19.54,26.64,2,1006.09,46.358,30.453457,-84.31882,287.91,142.4569661,,0,27.664516,,0 / 17,47105,2018-04-26 00:41:19:166,,,
-5.7653,2.3666,10.3875,-4.2273,2.6591,8.4436,-0.6439,0.5269,0.6219,-0.0626,-0.3978,-1.0728,42.258,-2.97,-16.27,-43.59,102.84,-15.73,26.59,2,1006.09,46.358,30.453457,-84.31882,287.91,142.4569661,,0,27.664516,,0 / 17,47206,2018-04-26 00:41:19:267,,,
-3.6249,2.1041,7.9418,-3.7472,2.5512,8.6998,-1.4388,1.7311,1.3795,0.1364,-0.7125,-0.6256,42.258,-3.39,-17.73,-43.63,107.66,-15.76,25.47,2,1006.09,46.358,30.453457,-84.31882,287.91,142.4569661,,0,27.664516,,0 / 17,47306,2018-04-26 00:41:19:367,,,
-2.1901,0.6846,7.2941,-3.4404,2.3654,8.8772,-1.4386,1.4779,1.6142,-0.3201,-0.8492,-0.6635,42.258,-6.32,-19.19,-42.45,114.62,-13.95,21.18,2,1006.09,45.806,30.453457,-84.31882,287.91,142.4569661,,0,27.664516,,0 / 17,47405,2018-04-26 00:41:19:466,,,
-2.5971,1.6249,8.0701,-3.0487,1.466,9.2083,0.658,-1.3942,-0.5443,-0.6308,-0.5278,-0.6146,42.258,-8.03,-16.6,-42.26,118.36,-8.59,18.32,2,1006.09,45.806,30.453457,-84.31882,287.91,142.4569661,,0,27.664516,,0 / 17,47506,2018-04-26 00:41:19:567,,,
-4.0952,2.8722,10.3611,-3.278,0.9589,9.1963,1.159,-1.2641,-3.4335,-0.9619,-0.0661,0.0124,75.007,-6.7,-14.13,-44.68,114.78,-5.61,19.62,2,1006.09,45.806,30.453457,-84.31882,287.91,142.4569661,,0,27.664516,,0 / 17,47606,2018-04-26 00:41:19:667,,,
-4.3889,1.6875,12.718,-3.3114,0.3416,9.2279,1.5521,-1.2777,-2.0884,-0.4564,0.1243,-0.0883,75.007,-5.96,-10.94,-44.74,113.64,-2.84,19.26,2,1006.09,48.667,30.453457,-84.31882,287.91,142.4569661,,0,27.664516,,0 / 17,47705,2018-04-26 00:41:19:766,,,
-4.8544,0.504,9.3164,-3.2786,0.5941,9.2268,1.097,-0.1544,0.2569,0.026,0.0293,0.4253,75.007,-6.17,-10.64,-43.77,114.31,-2.34,20.13,2,1006.09,48.667,30.453457,-84.31882,287.91,142.4569661,,0,27.664516,,0 / 17,47805,2018-04-26 00:41:19:866,,,
-4.1621,0.5341,8.3352,-3.0644,0.9542,9.2701,-0.0557,-0.4346,1.5472,0.4393,-0.2703,0.6708,75.007,-8.18,-12.03,-43.07,111.28,-5.58,18.29,2,1006.09,48.667,30.453457,-84.31882,287.91,142.4569661,,0,27.664516,,0 / 17,47906,2018-04-26 00:41:19:967,,,
-3.0173,1.4504,7.8423,-3.0209,1.6694,9.1828,1.0571,0.389,-0.804,0.4255,0.0962,0.4089,75.007,-8.23,-11.81,-43.79,107.32,-7.8,17.6,2,1006.09,40.694,30.453457,-84.31882,287.91,142.4569661,,0,27.664516,,0 / 17,48005,2018-04-26 00:41:20:066,,,
-3.6512,1.7212,9.9089,-3.3463,2.118,8.9751,0.484,-0.1267,0.3423,0.5714,0.8449,0.0266,75.007,-7.25,-14.28,-42.65,104.29,-12.47,20.45,2,1006.09,40.694,30.453457,-84.31882,287.91,142.4569661,,0,27.664516,,0 / 17,48106,2018-04-26 00:41:20:167,,,
-3.7813,1.8404,7.9562,-3.6127,1.8768,8.9254,1.4283,-0.4452,-1.87,-0.5782,0.1278,0.2235,75.007,-4.91,-14.03,-43.52,106.59,-11.03,22.04,2,1006.09,40.694,30.453457,-84.31882,287.91,142.4569661,,0,27.664516,,0 / 17,48207,2018-04-26 00:41:20:268,,,
-2.7833,1.5178,10.4858,-3.3248,2.1591,8.9733,0.1522,1.3221,1.0869,0.2262,-0.0111,0.5325,29.58,-7.67,-12.93,-43.09,103.14,-11.46,20.89,2,1006.09,40.694,30.453457,-84.31882,287.91,142.4569661,,0,27.664516,,0 / 17,48306,2018-04-26 00:41:20:367,,,
-3.5975,0.7629,7.9862,-2.9213,2.0702,9.1333,-0.2584,1.1572,0.1492,-0.1828,-0.4174,0.6079,29.58,-8.39,-12.15,-44.87,97.46,-12.71,20.33,2,1006.09,38.151,30.453457,-84.31882,287.91,142.4569661,,0,27.664516,,0 / 17,48406,2018-04-26 00:41:20:467,,,
-2.1113,1.7321,9.1772,-2.6438,2.3415,9.1523,-0.3504,0.6295,0.5464,0.2677,-0.1086,0.201,29.58,-10.28,-10.54,-43.79,96.09,-12.31,16.61,2,1006.09,38.151,30.453457,-84.31882,287.91,142.4569661,,0,27.664516,,0 / 17,48506,2018-04-26 00:41:20:567,,,
-2.6783,1.2734,8.2669,-2.4932,2.4948,9.154,0.0116,0.3195,0.4185,0.0823,-0.1911,0.257,29.58,-12.03,-11.23,-43.07,92.23,-14.73,15.24,2,1006.08,38.151,30.453457,-84.31882,287.91,142.4569661,,0,27.664516,,0 / 17,48605,2018-04-26 00:41:20:666,,,
