ACCELEROMETER X (m/s²),ACCELEROMETER Y (m/s²),ACCELEROMETER Z (m/s²),GRAVITY X (m/s²),GRAVITY Y (m/s²),GRAVITY Z (m/s²),LINEAR ACCELERATION X (m/s²),LINEAR ACCELERATION Y (m/s²),LINEAR ACCELERATION Z (m/s²),GYROSCOPE X (rad/s),GYROSCOPE Y (rad/s),GYROSCOPE Z (rad/s),LIGHT (lux),MAGNETIC FIELD X (μT),MAGNETIC FIELD Y (μT),MAGNETIC FIELD Z (μT),ORIENTATION Z (azimuth °),ORIENTATION X (pitch °),ORIENTATION Y (roll °),PROXIMITY (i),ATMOSPHERIC PRESSURE (hPa),SOUND LEVEL (dB),LOCATION Latitude : ,LOCATION Longitude : ,LOCATION Altitude ( m),LOCATION Altitude-google ( m),LOCATION Altitude-atmospheric pressure ( m),LOCATION Speed ( Kmh),LOCATION Accuracy ( m),LOCATION ORIENTATION (°),Satellites in range,Time since start in ms ,YYYY-MO-DD HH-MI-SS_SSS,,,LABEL_DATA
-0.7385,6.0567,8.3124,-0.7036,5.8817,7.8196,-0.0649,-0.1112,-0.2759,-0.1501,-0.1762,-0.0131,8.452,-10.62,-9.77,-43.39,41.36,-37.32,5.74,2,1006.14,34.154,30.453468,-84.31873,95.62,NaN,,0,89.90968,,17-Aug,4,2018-04-26 00:49:15:596,,,
-0.7074,5.8689,8.1301,-0.5804,5.816,7.8787,0.2256,0.0114,-0.7149,-0.1974,-0.2152,0.1296,8.452,-11.04,-8.52,-43.52,37.83,-36.36,4.21,2,1006.13,24.943,30.453468,-84.31873,95.62,NaN,,0,89.90968,,17-Aug,103,2018-04-26 00:49:15:695,,,
-0.0569,6.3481,8.4984,-0.243,5.8276,7.8877,-0.9196,-0.3887,0.6086,0.0042,-0.1542,0.32,8.452,-12.33,-8.2,-43.79,37.25,-35.74,3.01,2,1006.13,24.943,30.453468,-84.31873,95.62,NaN,,0,89.90968,,17-Aug,204,2018-04-26 00:49:15:796,,,
0.8922,6.4107,7.6311,-0.1998,5.8738,7.8546,-0.6434,-0.1473,0.2244,0.1274,-0.2569,-0.0847,8.452,-13.87,-9.73,-42.53,40.74,-36.78,1.46,2,1006.13,24.943,30.453468,-84.31873,95.62,NaN,,0,89.90968,,17-Aug,303,2018-04-26 00:49:15:895,,,
-0.7074,5.6859,7.4404,0.1663,5.7866,7.9199,0.1106,-0.4483,0.5701,-0.3157,-0.3354,0.0903,8.452,-13.66,-9.02,-42.82,37.69,-37.03,0.53,2,1006.13,25.059,30.453468,-84.31873,95.62,NaN,,0,89.90968,,17-Aug,404,2018-04-26 00:49:15:996,,,
0.0744,6.0892,7.6623,0.1777,5.4423,8.16,0.3389,0.1269,0.3332,-0.359,0.117,0.006,8.452,-14.82,-7.44,-41.98,36.62,-34.91,-1.66,2,1006.13,25.059,30.453468,-84.31873,95.62,NaN,,0,89.90968,,17-Aug,503,2018-04-26 00:49:16:095,,,
-0.175,5.3885,7.7535,0.2882,5.3526,8.216,0.0064,0.1189,-0.0291,-0.0917,-0.0465,0.2288,8.452,-14.92,-5.53,-42.81,35.78,-33.07,-2.01,2,1006.12,25.059,30.453468,-84.31873,95.62,NaN,,0,89.90968,,17-Aug,604,2018-04-26 00:49:16:196,,,
0.4541,5.1754,7.9838,0.2459,5.0796,8.3889,-0.313,0.1159,0.5553,-0.266,0.1659,0.1766,8.452,-14.42,-4.51,-44.05,34.18,-31.18,-1.68,2,1006.12,24.9,30.453468,-84.31873,95.62,NaN,,0,89.90968,,17-Aug,704,2018-04-26 00:49:16:296,,,
0.4935,4.8841,7.9886,0.0051,4.855,8.5244,0.0547,0.1909,0.2051,-0.4509,0.5177,0.0015,8.452,-12.88,-3.26,-44.25,34.09,-29.66,-0.03,2,1006.12,24.9,30.453468,-84.31873,95.62,NaN,,0,89.90968,,17-Aug,803,2018-04-26 00:49:16:395,,,
-0.1929,4.3339,9.5107,-0.4955,4.5533,8.6751,-1.0774,-2.252,0.5138,-0.4393,0.5641,0.0496,8.452,-11.76,-1.37,-44.33,37.06,-27.66,3.27,2,1006.12,24.9,30.453468,-84.31873,95.62,NaN,,0,89.90968,,17-Aug,904,2018-04-26 00:49:16:496,,,
-0.9736,6.0447,8.3664,-0.9279,4.9543,8.4161,-0.9387,-0.7497,-0.2887,0.414,0.0479,-0.6724,8.452,-10.38,-2.61,-44.54,34.17,-29.07,3.62,2,1006.12,35.522,30.453468,-84.31873,95.62,NaN,,0,89.90968,,17-Aug,1004,2018-04-26 00:49:16:596,,,
0.0052,7.8916,8.7706,-1.701,5.0766,8.2201,-0.3371,-4.5891,1.1976,0.3681,0.3586,-1.7674,9.508,-9.28,-5.22,-44.74,37.98,-30.33,6.29,2,1006.12,35.522,30.453468,-84.31873,95.62,NaN,,0,89.90968,,17-Aug,1103,2018-04-26 00:49:16:695,,,
-2.8263,7.1379,5.0799,-0.3515,5.7299,7.9549,-0.1427,1.3244,4.3288,0.9493,-1.5325,0.2868,9.508,-9.9,-9.75,-43.74,55.54,-32.48,12.86,2,1006.1,35.522,30.453468,-84.31873,95.62,NaN,,0,89.90968,,17-Aug,1203,2018-04-26 00:49:16:795,,,
0.3968,1.714,4.7321,2.3201,6.6537,6.8251,1.247,4.7807,2.4262,4.3936,-2.7356,3.8861,9.508,-26.35,-11.6,-36.52,31.65,-42.71,-18.77,2,1006.1,37.182,30.453468,-84.31873,95.62,NaN,,0,89.90968,,17-Aug,1303,2018-04-26 00:49:16:895,,,
2.9919,0.1501,3.168,7.1821,5.1184,4.296,-3.8995,4.8523,0.4676,5.2723,0.6945,6.0255,9.508,-32.46,-3.58,-32.51,328.95,-31.45,-59.11,2,1006.1,37.182,30.453468,-84.31873,95.62,NaN,,0,89.90968,,17-Aug,1403,2018-04-26 00:49:16:995,,,
10.1053,0.3716,12.4625,7.8689,-2.419,5.3353,-2.1647,-0.6484,-4.5771,-4.7499,-0.2046,4.61,9.508,-28.6,16.8,-32.98,331.97,-3.94,-55.26,2,1006.11,37.182,30.453468,-84.31873,95.62,NaN,,0,89.90968,,17-Aug,1504,2018-04-26 00:49:17:096,,,
8.8221,-0.0149,10.2987,7.0548,-4.5903,5.0394,-4.7237,-1.5618,-2.6068,-0.9623,-0.7191,2.9125,9.508,-16.55,35.95,-25.52,328.32,27.9,-54.46,2,1006.11,37.182,30.453468,-84.31873,95.62,NaN,,0,89.90968,,17-Aug,1604,2018-04-26 00:49:17:196,,,
11.6524,-2.1917,9.4987,7.215,-4.9751,4.4078,-0.2347,-0.9782,-0.5612,0.4847,-1.0393,-0.0137,9.508,-12.55,39.51,-24.08,329.68,32.69,-54.37,2,1006.13,48.978,30.453468,-84.31873,95.62,NaN,,0,89.90968,,17-Aug,1703,2018-04-26 00:49:17:295,,,
6.8775,-4.4262,3.5027,7.555,-5.1091,3.6132,0.3663,0.0527,-1.9559,0.2857,-1.6919,0.3976,8.452,-15.58,38.53,-23.55,329.17,30.47,-58.58,2,1006.13,48.978,30.453468,-84.31873,95.62,NaN,,0,89.90968,,17-Aug,1803,2018-04-26 00:49:17:395,,,
7.2905,-5.3364,5.7012,7.7912,-4.9656,3.2978,-0.8334,-0.4751,-0.0384,1.5264,-0.9387,0.4977,8.452,-16.86,37.48,-24.62,318.26,31.61,-66.54,2,1006.13,48.978,30.453468,-84.31873,95.62,NaN,,0,89.90968,,17-Aug,1904,2018-04-26 00:49:17:496,,,
8.2598,-5.7566,3.4151,8.1799,-4.7153,2.663,-0.9399,1.3456,-0.5139,2.3873,-2.3177,0.5285,8.452,-22.02,31.09,-28.64,301.68,28.73,-71.97,0,1006.13,36.493,30.453468,-84.31873,95.62,NaN,,0,89.90968,,17-Aug,2003,2018-04-26 00:49:17:595,,,
7.9698,-5.3352,2.3032,8.2221,-4.8175,2.329,0.6166,-0.4908,5.6958,0.3325,-1.2217,0.8423,8.452,-24.15,27.6,-30.8,290.92,29.41,-74.18,0,1006.13,36.493,30.453468,-84.31873,95.62,NaN,,0,89.90968,,17-Aug,2104,2018-04-26 00:49:17:696,,,
9.9131,-5.5146,3.0181,7.7754,-5.9004,0.982,1.2736,0.9606,1.6494,0.2765,-1.3888,1.1439,8.452,-25.11,28.49,-29.06,286.71,32.91,-78.18,0,1006.13,36.493,30.453468,-84.31873,95.62,NaN,,0,89.90968,,17-Aug,2203,2018-04-26 00:49:17:795,,,
5.5047,-6.9618,-0.0201,7.1236,-6.7315,0.4199,7.6112,0.3191,7.7698,-1.0333,-0.8075,2.4038,8.452,-24.96,32.32,-25.65,281.77,43.33,-86.63,0,1006.13,34.6,30.453468,-84.31873,95.62,NaN,,0,89.90968,,17-Aug,2304,2018-04-26 00:49:17:896,,,
13.7522,-3.1982,12.255,4.898,-8.4345,-1.051,1.2406,-1.4018,4.063,-0.3612,-1.0223,2.1878,8.452,-18.81,39.3,-20.02,287.78,59.29,-102.11,0,1006.11,34.6,30.453468,-84.31873,95.62,NaN,,0,89.90968,,17-Aug,2403,2018-04-26 00:49:17:995,,,
7.2141,-8.3235,-1.1728,4.3114,-8.7173,-1.2868,2.1138,3.8323,-1.9116,0.0889,0.106,1.1669,1.056,-11.91,43.03,-17.91,304.25,62.7,-106.62,0,1006.11,34.6,30.453468,-84.31873,95.62,NaN,,0,89.90968,,17-Aug,2504,2018-04-26 00:49:18:096,,,
3.5184,-14.7503,-0.765,3.4701,-9.1024,-1.1579,-0.1987,-1.0082,1.0547,0.5708,-0.8594,0.7646,1.056,-10.53,42.2,-18.68,297.49,67.45,-105.67,0,1006.14,34.6,30.453468,-84.31873,95.62,NaN,,0,89.90968,,0 / 17,2603,2018-04-26 00:49:18:195,,,
3.0552,-7.4157,-3.5405,3.4207,-9.0806,-1.4413,-0.1245,-1.1084,-0.2604,-0.167,0.0294,-0.1001,1.056,-12.21,43.56,-18.32,300.45,66.82,-109.1,0,1006.14,48.442,30.453468,-84.31873,95.62,NaN,,0,89.90968,,0 / 17,2703,2018-04-26 00:49:18:295,,,
2.4034,-8.3163,-1.186,2.8151,-9.3049,-1.3155,-0.619,0.173,-0.7351,0.2104,0.3276,0.9263,1.056,-7.71,43.98,-16.85,306.47,71.53,-115.05,0,1006.29,48.442,30.453468,-84.31873,95.62,NaN,,0,89.90968,,0 / 17,2804,2018-04-26 00:49:18:396,,,
4.4507,-10.2547,-0.4531,2.6529,-9.3859,-1.0503,-0.548,0.7063,0.0906,0.1027,0.4544,0.1205,1.056,-6.68,44.7,-17.22,306.05,73.6,-114.54,0,1006.25,48.442,30.453468,-84.31873,95.62,NaN,,0,89.90968,,0 / 17,2903,2018-04-26 00:49:18:495,,,
3.9027,-8.7774,-1.3263,2.7587,-9.3654,-0.9566,-1.8495,-0.4792,0.3823,0.1894,0.4892,0.0778,1.056,-5.84,43.09,-18.57,303.79,72.68,-109.12,0,1006.25,43.782,30.453468,-84.31873,95.62,NaN,,0,89.90968,,0 / 17,3004,2018-04-26 00:49:18:596,,,
4.4184,-8.9255,-1.2639,2.653,-9.4262,-0.5862,-1.0107,-0.9033,1.0789,0.296,0.0611,0.1034,1.056,-5.58,42.94,-19.59,296.6,73.92,-102.46,0,1006.25,43.782,30.453468,-84.31873,95.62,NaN,,0,89.90968,,0 / 17,3103,2018-04-26 00:49:18:695,,,
4.0985,-8.3295,-2.1011,2.2629,-9.532,-0.5056,-2.1027,-1.2674,2.1171,0.0266,0.0988,0.397,0.946,-3.29,43.19,-20.26,299.81,76.33,-102.6,0,1006.25,43.782,30.453468,-84.31873,95.62,NaN,,0,89.90968,,0 / 17,3204,2018-04-26 00:49:18:796,,,
4.7587,-8.2789,-2.5917,2.2385,-9.5436,-0.3799,-0.6594,2.4154,-2.4094,0.3605,-0.3077,-0.1005,0.946,-2.79,44.1,-21.04,299.58,76.33,-102.6,0,1006.25,46.886,30.453468,-84.31873,95.62,NaN,,0,89.90968,,0 / 17,3303,2018-04-26 00:49:18:895,,,
3.4623,-12.3628,1.0666,3.1457,-9.2463,-0.9201,0.175,4.8525,0.2218,-0.3717,-0.6351,-0.9251,0.946,-6.62,43.05,-20.53,288.07,75.13,-97.82,0,1006.16,46.886,30.453468,-84.31873,95.62,NaN,,0,89.90968,,0 / 17,3404,2018-04-26 00:49:18:996,,,
3.4814,-13.143,-1.433,3.7415,-8.9299,-1.5791,-0.0995,-0.1695,-0.095,-0.8537,-0.4225,-0.4144,0.946,-11.15,43.57,-15.34,308.31,65.55,-112.88,0,1006.07,46.886,30.453468,-84.31873,95.62,NaN,,0,89.90968,,0 / 17,3503,2018-04-26 00:49:19:095,,,
3.1638,-8.5883,-1.6417,3.7154,-8.7355,-2.4745,0.7334,-3.3752,0.1029,-0.4861,-0.6852,-0.1236,0.946,-12.38,43.97,-14.02,311.41,64.18,-119.44,0,1006.04,44.66,30.453468,-84.31873,95.62,NaN,,0,89.90968,,0 / 17,3604,2018-04-26 00:49:19:196,,,
3.0528,-4.7381,-2.9215,3.6225,-8.7482,-2.5656,-0.3381,-2.8606,1.096,0.2948,-0.3443,0.0019,0.946,-12.84,44.22,-12.44,313.87,63.1,-125.31,0,1006.04,44.66,30.453468,-84.31873,95.62,NaN,,0,89.90968,,0 / 17,3703,2018-04-26 00:49:19:295,,,
3.8454,-5.493,-3.135,3.7214,-8.7374,-2.4587,-0.6147,1.6482,1.1072,-0.1678,-0.1877,-0.249,0.946,-14.79,43.05,-13.42,307.72,62.96,-123.45,0,1006.09,44.66,30.453468,-84.31873,95.62,NaN,,0,89.90968,,0 / 17,3804,2018-04-26 00:49:19:396,,,
4.7694,-17.0486,-5.5435,3.9167,-8.4559,-3.065,1.5787,-0.9144,-1.9197,-0.6163,-0.0461,-0.2248,0.946,-14.85,43.32,-10.1,314.68,59.54,-128.04,0,1006.09,44.66,30.453468,-84.31873,95.62,NaN,,0,89.90968,,0 / 17,3903,2018-04-26 00:49:19:495,,,
1.0593,-5.0679,-3.2418,3.777,-8.5262,-3.0455,-0.5274,1.2251,-1.4109,1.3555,-0.3797,0.603,0.946,-16.76,43.78,-10.79,310.95,59.54,-128.04,0,1006.15,49.765,30.453468,-84.31873,95.62,NaN,,0,89.90968,,0 / 17,4004,2018-04-26 00:49:19:596,,,
0.7943,-6.7523,-1.2867,3.315,-8.9639,-2.2127,-0.176,-0.506,-1.7365,0.206,0.5172,0.5757,0.946,-12.62,43.71,-13.17,311.58,65.37,-127.58,0,1006.18,49.765,30.453468,-84.31873,95.62,NaN,,0,89.90968,,0 / 17,4103,2018-04-26 00:49:19:695,,,
2.9633,-8.5631,-0.1304,3.3217,-9.0275,-1.9255,-0.5499,-0.9114,-0.0044,0.2546,0.1681,0.4268,0.946,-11.14,43.05,-15.04,309.03,66.96,-120.1,0,1006.18,49.765,30.453468,-84.31873,95.62,NaN,,0,89.90968,,0 / 17,4204,2018-04-26 00:49:19:796,,,
3.7822,-7.9238,-1.2255,2.7981,-9.266,-1.5961,-2.2497,-1.3329,-0.1227,0.3251,0.0129,0.556,0.946,-10.21,43.19,-17.12,307.39,69.34,-120.15,0,1006.22,45.001,30.453468,-84.31873,95.62,NaN,,0,89.90968,,0 / 17,4304,2018-04-26 00:49:19:896,,,
6.4108,-8.6883,-1.9788,2.9499,-9.278,-1.2052,1.7306,1.4999,-2.8278,0.4484,-0.2457,-0.0441,0.946,-8.87,43.44,-18.11,304.93,71.62,-118.04,0,1006.26,45.001,30.453468,-84.31873,95.62,NaN,,0,89.90968,,0 / 17,4403,2018-04-26 00:49:19:995,,,Out
-0.3553,-13.1971,-1.3767,3.6336,-9.0056,-1.3898,3.6521,6.144,0.4387,-0.6661,0.0116,-0.8866,0.946,-13.85,41.23,-17.99,294.97,66.64,-110.93,0,1006.26,45.001,30.453468,-84.31873,95.62,NaN,,0,89.90968,,0 / 17,4504,2018-04-26 00:49:20:096,,,Out
3.8562,-10.9265,-1.2663,4.1513,-8.6592,-2.0054,0.5668,-1.9468,0.1384,-0.6693,0.2347,-0.513,0.946,-15.48,41.68,-15,304.13,61.97,-115.78,0,1006.18,39.156,30.453468,-84.31873,95.62,NaN,,0,89.90968,,0 / 17,4603,2018-04-26 00:49:20:195,,,Out
3.2307,-6.8137,-2.0064,4.0283,-8.653,-2.266,1.5937,-2.2062,-0.4257,-0.0478,-0.6589,-0.0515,0.946,-16.18,42.47,-14.49,304.04,61.89,-119.36,0,1006.18,39.156,30.453468,-84.31873,95.62,NaN,,0,89.90968,,0 / 17,4704,2018-04-26 00:49:20:296,,,Out
2.2972,-5.9456,-2.0268,4.0224,-8.6605,-2.2478,-0.2053,-0.9236,1.7922,0.0813,0.1084,0.0774,0.946,-16.87,41.74,-14.62,302.11,61.98,-120.51,0,1006.11,39.156,30.453468,-84.31873,95.62,NaN,,0,89.90968,,0 / 17,4803,2018-04-26 00:49:20:395,,,Out
3.6413,-7.4687,-3.8223,4.2762,-8.5492,-2.2048,-1.6134,1.6184,1.5688,-0.0039,0.2458,-0.1684,0.946,-17.1,42.51,-14.14,303.6,60.93,-117.99,0,1006.16,35.027,30.453468,-84.31873,95.62,NaN,,0,89.90968,,0 / 17,4904,2018-04-26 00:49:20:496,,,Out
3.7332,-13.3465,-7.8093,4.044,-8.5484,-2.6091,0.6734,3.6377,-3.9643,-0.2697,0.3115,0.2393,0.946,-17,42.46,-14.09,302.76,60.63,-117.28,0,1006.14,35.027,30.453468,-84.31873,95.62,NaN,,0,89.90968,,0 / 17,5003,2018-04-26 00:49:20:595,,,Out
2.2053,-8.5065,0.5532,3.9222,-8.6239,-2.5457,0.2041,1.1223,-2.8447,-0.1635,-0.2112,-0.054,0.946,-16.15,41.99,-12.81,308.7,59.98,-123.91,0,1006.14,35.027,30.453468,-84.31873,95.62,NaN,,0,89.90968,,0 / 17,5103,2018-04-26 00:49:20:695,,,Out
0.6809,-8.5679,-0.8633,3.6671,-8.835,-2.1752,-0.1063,1.2581,-6.5857,0.1785,1.2045,0.3354,0.946,-13.79,43.48,-14.62,306.32,64.24,-120.67,0,1006.19,35.027,30.453468,-84.31873,95.62,NaN,,0,89.90968,,0 / 17,5204,2018-04-26 00:49:20:796,,,Out
3.1376,-9.1301,-0.723,4.0243,-8.7675,-1.7808,-0.6644,-2.4222,1.4098,-1.2296,2.7545,-0.1718,0.946,-9.34,44.33,-14.32,316.69,63.35,-113.87,0,1006.19,41.736,30.453468,-84.31873,95.62,NaN,,0,89.90968,,0 / 17,5303,2018-04-26 00:49:20:895,,,Out
4.7169,-7.9647,-1.5566,3.6109,-9.0244,-1.326,-2.2881,-0.494,0.0598,0.4409,0.1277,0.5018,0.946,-7.66,44.03,-17.31,310.06,66.91,-110.16,0,1006.74,41.736,30.453468,-84.31873,95.62,NaN,,0,89.90968,,0 / 17,5404,2018-04-26 00:49:20:996,,,Out
6.628,-8.1922,-2.2091,4.005,-8.9147,-0.8517,-1.7569,10.9767,-3.4975,1.6509,0.0401,-3.1538,0.946,-6.74,43.69,-17.6,310,68.19,-110.8,0,1006.86,41.736,30.453468,-84.31873,95.62,NaN,,0,89.90968,,0 / 17,5503,2018-04-26 00:49:21:095,,,Out
8.107,-14.9586,0.2198,6.2611,-7.4824,1.0238,9.6928,17.3487,-6.9927,-1.5332,4.3083,-2.3907,0.946,-13.48,39.54,-23.03,297.96,54.21,-86.72,0,1006.41,58.252,30.453468,-84.31873,95.62,NaN,,0,89.90968,,0 / 17,5603,2018-04-26 00:49:21:195,,,Out
-9.3763,-4.7272,2.458,6.5188,-7.3061,0.6023,8.7189,-3.3082,-1.3223,-1.2765,-0.9425,0.0981,0.946,-12.4,40.74,-21.24,308.41,49.71,-80.71,0,1006.41,58.252,30.453468,-84.31873,95.62,NaN,,0,89.90968,,0 / 17,5704,2018-04-26 00:49:21:296,,,Out
-1.715,-3.8255,2.2384,5.4944,-8.0869,-0.8057,5.9083,-4.3726,-2.2738,-1.2738,-0.2797,0.9903,0.946,-11.92,43.86,-15.65,319.75,50.18,-92.87,2,1006.32,58.252,30.453468,-84.31873,95.62,NaN,,0,89.90968,,0 / 17,5803,2018-04-26 00:49:21:395,,,Out
-0.7098,-5.3714,0.3194,4.5462,-8.4958,-1.841,4.2334,1.178,-2.0947,-1.5879,-1.9774,1.7902,0.946,-5.76,46.02,-8.6,333.35,60,-112.05,2,1006.32,52.29,30.453468,-84.31873,95.62,NaN,,0,89.90968,,0 / 17,5903,2018-04-26 00:49:21:495,,,Out
1.07,-8.8966,-2.1227,1.5321,-8.5144,-4.6254,3.5774,2.481,-3.0402,-1.5159,-3.1033,1.5788,0.946,2.03,47.72,-0.71,3.6,60.22,-161.67,2,1006.26,52.29,30.453468,-84.31873,95.62,NaN,,0,89.90968,,0 / 17,6004,2018-04-26 00:49:21:596,,,Out
-1.6242,-10.4954,-2.0459,-1.286,-8.2899,-5.0852,4.1095,3.2274,2.0876,-0.2728,-4.2072,-0.0231,15.847,3.43,47.77,1.51,7.32,58.45,-179.79,2,1006.21,52.29,30.453468,-84.31873,95.62,NaN,,0,89.90968,,0 / 17,6103,2018-04-26 00:49:21:695,,,Out
-8.6529,-11.4213,-7.6689,-2.375,-8.2074,-4.8202,6.1448,3.1552,3.5453,-0.0817,-4.3757,-0.8785,15.847,2.45,47.37,1.33,3.19,56.79,153.77,2,1006.21,53.055,30.453468,-84.31873,95.62,NaN,,0,89.90968,,0 / 17,6204,2018-04-26 00:49:21:796,,,Out
-7.5177,-8.4174,-5.8734,-3.4983,-8.5012,-3.4246,1.0678,2.6172,3.6321,-0.1977,-4.167,-0.8017,15.847,-0.55,48.22,2.06,355.24,58.4,141.4,2,1006.17,53.055,30.453468,-84.31873,95.62,NaN,,0,89.90968,,0 / 17,6304,2018-04-26 00:49:21:896,,,Out
-6.8396,-7.7865,-3.2922,-3.2613,-8.9112,-2.488,3.4016,0.0589,1.4053,0.3572,-2.3654,-1.1786,15.847,-7.65,46.84,1.34,347.21,65.28,127.34,2,1006.14,53.055,30.453468,-84.31873,95.62,NaN,,0,89.90968,,0 / 17,6403,2018-04-26 00:49:21:995,,,Out
-4.4008,-6.8318,-2.8316,-2.7374,-9.3448,-1.1905,1.7677,-2.7353,2.1678,0.782,-2.0361,-0.8551,15.847,-9.06,46.51,0.54,347.39,69.3,119.18,2,1006.14,53.055,30.453468,-84.31873,95.62,NaN,,0,89.90968,,0 / 17,6504,2018-04-26 00:49:22:096,,,Out
-4.8652,-6.3345,-2.431,-2.2468,-9.5341,-0.538,2.3363,-3.0842,2.725,0.2666,-1.4082,-0.6033,15.847,-12.73,45.91,1.43,346.64,74.86,110.82,2,1006.14,43.724,30.453468,-84.31873,95.62,NaN,,0,89.90968,,0 / 17,6604,2018-04-26 00:49:22:196,,,Out
-5.8906,-7.3772,-2.1587,-2.1771,-9.5475,-0.5843,2.6418,-1.8457,1.7821,-0.3579,-0.9172,-0.2076,15.847,-13.41,45.56,3.35,344.12,76.72,105.02,2,1006.14,43.724,30.453468,-84.31873,95.62,NaN,,0,89.90968,,0 / 17,6703,2018-04-26 00:49:22:295,,,Out
-4.4152,-9.5142,-0.7146,-2.6646,-9.3748,-1.1174,1.7229,-0.0626,-0.4907,-0.7698,-1.0416,0.2951,31.693,-14.43,45.23,5.42,337.64,76.42,107.9,2,1006.14,43.724,30.453468,-84.31873,95.62,NaN,,0,89.90968,,0 / 17,6803,2018-04-26 00:49:22:395,,,Out
-6.318,-10.5352,-2.9191,-3.0137,-9.299,-0.8267,2.9995,1.1307,2.2671,0.1254,-1.3272,0.3376,31.693,-9.73,45.87,8.63,332.26,71.42,105.34,2,1006.14,33.95,30.453468,-84.31873,95.62,NaN,,0,89.90968,,0 / 17,6904,2018-04-26 00:49:22:496,,,Out
-3.6392,-8.9519,-0.5143,-3.777,-9.0043,-0.9449,-0.8054,-0.0824,0.7853,-0.9191,-1.6243,0.6375,31.693,-5.46,46.22,12.6,323.07,69.03,102.76,2,1006.15,33.95,30.453468,-84.31873,95.62,NaN,,0,89.90968,,0 / 17,7003,2018-04-26 00:49:22:595,,,Out
-3.1808,-7.5939,-2.3098,-4.1821,-8.8335,-0.8459,-0.9459,-1.2908,1.5947,-1.0471,-2.0323,0.3591,31.693,-0.45,45.7,17.32,315.53,64.22,101.43,2,1006.15,33.95,30.453468,-84.31873,95.62,NaN,,0,89.90968,,0 / 17,7104,2018-04-26 00:49:22:696,,,Out
-2.5625,-8.4523,-2.0591,-4.1754,-8.7479,-1.5086,-1.4113,-0.5289,0.0502,-2.0674,-2.6718,-0.4785,31.693,2.13,42.28,22.23,300.57,63.05,104.95,2,1006.16,33.354,30.453468,-84.31873,95.62,NaN,,0,89.90968,,0 / 17,7204,2018-04-26 00:49:22:796,,,Out
-3.3802,-9.4167,-4.9618,-3.5073,-8.7811,-2.613,0.2113,0.772,3.3848,-2.1682,-2.8161,-1.2022,31.693,6.4,37.21,29.08,270.87,63.59,115.68,2,1006.16,33.354,30.453468,-84.31873,95.62,NaN,,0,89.90968,,0 / 17,7303,2018-04-26 00:49:22:895,,,Out
-3.0531,-8.0694,-2.4262,-3.1866,-8.3656,-4.0122,-0.374,0.7672,-0.2965,-3.7713,-3.2798,-1.635,31.693,11.75,25.79,37.17,217.89,58.51,141.54,2,1006.15,33.354,30.453468,-84.31873,95.62,NaN,,0,89.90968,,0 / 17,7404,2018-04-26 00:49:22:996,,,Out
-4.5429,-7.7937,-5.7978,-4.0187,-6.7845,-5.8358,0.7207,0.6403,0.379,-2.9264,-2.9032,-1.0102,34.862,16.94,19.88,38.76,201.04,51.93,145.73,2,1006.15,34.856,30.453468,-84.31873,95.62,NaN,,0,89.90968,,0 / 17,7504,2018-04-26 00:49:23:096,,,
-3.6512,-9.9428,-3.8643,-4.7512,-5.5044,-6.5851,-1.5432,5.0606,-2.8416,-3.1761,-1.8911,-0.286,34.862,27.4,4.41,36.33,177.83,34.13,144.19,2,1006.15,34.856,30.453468,-84.31873,95.62,NaN,,0,89.90968,,0 / 17,7603,2018-04-26 00:49:23:195,,,
-4.5644,-9.9681,-4.4592,-5.4289,-4.084,-7.077,-0.9778,5.9217,-2.4794,-1.9733,-0.9437,-0.3624,34.862,31.92,-3.07,32.25,164.56,24.6,142.51,2,1006.15,34.856,30.453468,-84.31873,95.62,NaN,,0,89.90968,,0 / 17,7704,2018-04-26 00:49:23:296,,,
-3.9699,-9.4143,-4.9546,-5.4161,-4.5114,-6.8227,-1.337,4.76,-2.1622,-0.4272,-0.6765,-1.1216,34.862,34.39,-1.14,28.26,153.36,24.97,142.01,2,1006.16,34.856,30.453468,-84.31873,95.62,NaN,,0,89.90968,,0 / 17,7804,2018-04-26 00:49:23:396,,,
-6.5878,-10.0777,-2.876,-4.9619,-5.0922,-6.7591,1.9176,5.0249,-3.7974,0.4818,-0.0343,-1.9016,34.862,36.67,2.23,27.31,146.65,27.38,141.56,2,1006.16,31.625,30.453468,-84.31873,95.62,NaN,,0,89.90968,,0 / 17,7904,2018-04-26 00:49:23:496,,,
-8.333,-13.4054,-2.1455,-4.0718,-7.4798,-4.8692,4.2114,6.0229,-2.6376,2.1196,-0.4318,-1.5294,34.862,37.18,12.77,25.78,137.13,38.66,144.82,2,1006.16,31.625,30.453468,-84.31873,95.62,NaN,,0,89.90968,,0 / 17,8003,2018-04-26 00:49:23:595,,,
-6.9697,-11.5537,-2.1323,-3.7386,-8.6709,-2.6599,3.622,2.8393,-0.7528,4.2508,-1.4314,-1.2305,34.862,34.81,27.19,15.98,160.76,62.11,125.43,2,1006.17,31.625,30.453468,-84.31873,95.62,NaN,,0,89.90968,,0 / 17,8103,2018-04-26 00:49:23:695,,,
-4.9607,-10.9252,-1.1356,-2.2747,-9.2365,2.3978,2.9549,1.8809,3.698,3.8641,-1.763,-1.3908,8.452,30.92,34.93,-3.76,240.8,70.31,43.49,2,1006.16,43.396,30.453468,-84.31873,95.62,NaN,,0,89.90968,,0 / 17,8203,2018-04-26 00:49:23:795,,,
-2.7129,-8.6967,0.4309,-1.7972,-8.7162,4.1271,1.2177,0.5949,4.655,2.6478,-0.7845,-0.3512,8.452,29.99,36,-11.46,262.4,62.69,23.53,2,1006.16,43.396,30.453468,-84.31873,95.62,NaN,,0,89.90968,,0 / 17,8303,2018-04-26 00:49:23:895,,,
-2.2784,-7.8009,2.4987,-1.2865,-7.4565,6.2436,0.9452,1.0535,4.6748,2.0623,-0.6329,-0.1443,8.452,28.57,30.59,-22.13,268.37,49.47,11.64,2,1006.15,43.396,30.453468,-84.31873,95.62,NaN,,0,89.90968,,0 / 17,8404,2018-04-26 00:49:23:996,,,
-1.4034,-6.6596,3.6574,-1.1226,-6.5772,7.1914,0.7176,0.5011,3.2383,1.0393,-0.4499,0.1777,8.452,28.14,27.57,-27.26,263.09,45.4,10.11,2,1006.15,43.052,30.453468,-84.31873,95.62,NaN,,0,89.90968,,0 / 17,8504,2018-04-26 00:49:24:096,,,
-0.7719,-6.6367,4.0832,-0.9177,-6.3555,7.4163,-0.2072,0.1458,3.4579,0.268,-0.3461,-0.1729,8.452,26.84,25.97,-29.37,263.04,42.1,8.87,2,1006.15,43.052,30.453468,-84.31873,95.62,NaN,,0,89.90968,,0 / 17,8604,2018-04-26 00:49:24:196,,,
-0.4496,-7.0148,6.2086,-0.6376,-6.3156,7.4795,-0.2617,0.5289,1.3652,0.042,-0.2676,-0.1464,8.452,25.53,25.59,-30.11,267.69,40.3,4.9,2,1006.14,43.052,30.453468,-84.31873,95.62,NaN,,0,89.90968,,0 / 17,8703,2018-04-26 00:49:24:295,,,
-0.9319,-6.6825,6.8611,-0.6354,-6.2499,7.5347,0.3114,0.5292,0.7516,0.2264,-0.1278,0.2393,8.452,25.88,25.32,-30.67,265.58,39.58,4.82,2,1006.14,35.737,30.453468,-84.31873,95.62,NaN,,0,89.90968,,0 / 17,8803,2018-04-26 00:49:24:395,,,
-1.1694,-6.6343,6.9367,-0.8369,-6.0862,7.6481,-0.0693,0.1479,0.963,0.1617,-0.0708,0.3304,8.452,26.01,23.18,-31.08,262.81,38.35,6.24,2,1006.13,35.737,30.453468,-84.31873,95.62,NaN,,0,89.90968,,0 / 17,8903,2018-04-26 00:49:24:495,,,
-1.5108,-6.3827,6.9475,-1.4593,-5.8708,7.7227,0.102,0.4735,1.0324,0.2093,0.2119,0.5856,22.185,27.17,21.27,-30.95,258.22,37.62,8.76,2,1006.13,35.737,30.453468,-84.31873,95.62,NaN,,0,89.90968,,0 / 17,9004,2018-04-26 00:49:24:596,,,
-1.4893,-5.9745,6.9858,-1.7531,-5.7992,7.7157,-1.5334,-0.1476,0.4724,-0.08,0.1518,0.6046,22.185,29.96,19.55,-31.3,255.79,36.24,12.8,2,1006.13,35.737,30.453468,-84.31873,95.62,NaN,,0,89.90968,,0 / 17,9104,2018-04-26 00:49:24:696,,,
-2.3166,-4.4744,14.5136,-1.9048,-4.4664,8.524,3.693,1.409,3.9505,2.0314,0.1661,-0.6608,22.185,30.14,16.03,-32.15,262.46,27.08,12.6,2,1006.12,53.81,30.453468,-84.31873,95.62,NaN,,0,89.90968,,0 / 17,9203,2018-04-26 00:49:24:795,,,
-0.4675,-4.1999,11.2235,-2.0688,-3.5977,8.8889,-2.6882,0.0112,-2.2102,0.5234,0.6714,0.3089,22.185,31.03,11.76,-33.41,252.98,27.08,12.6,2,1006.12,53.81,30.453468,-84.31873,95.62,NaN,,0,89.90968,,0 / 17,9303,2018-04-26 00:49:24:895,,,
-1.4189,-1.5186,8.1121,-2.3727,-2.3436,9.2257,-0.9383,-1.1061,1.1237,1.3772,0.0587,0.3085,22.185,32.62,7.23,-33.23,254.81,18.57,15.3,2,1006.12,53.81,30.453468,-84.31873,95.62,NaN,,0,89.90968,,0 / 17,9403,2018-04-26 00:49:24:995,,,
3.0827,-0.2171,6.9475,-2.086,-2.0674,9.36,-1.2853,0.5991,5.0891,0.4342,-0.5089,-0.9857,22.185,30.26,5.78,-34.79,262.4,12.36,12.81,2,1006.12,43.855,30.453468,-84.31873,95.62,NaN,,0,89.90968,,0 / 17,9504,2018-04-26 00:49:25:096,,,
3.9099,0.9567,12.6532,-2.4639,-1.1874,9.421,-6.4761,-3.1204,-3.0928,1.0266,-0.1658,0.0916,22.185,32.9,5.51,-31.94,272.88,6.95,14.66,2,1006.14,43.855,30.453468,-84.31873,95.62,NaN,,0,89.90968,,0 / 17,9603,2018-04-26 00:49:25:195,,,
3.4742,0.185,13.0622,-1.735,-1.1547,9.586,-4.209,0.9047,-3.5202,-0.3348,-0.8709,1.053,10.564,32.14,3.04,-32.42,266.83,6.42,13.24,2,1006.14,43.855,30.453468,-84.31873,95.62,NaN,,0,89.90968,,0 / 17,9704,2018-04-26 00:49:25:296,,,
0.5722,0.1392,10.6166,-1.5855,-1.873,9.4981,-3.2586,-2.8356,-0.134,-1.3731,-1.1429,1.9798,10.564,28.94,0.39,-36.26,251.27,11.01,9.48,2,1006.14,41.54,30.453468,-84.31873,95.62,NaN,,0,89.90968,,0 / 17,9803,2018-04-26 00:49:25:395,,,
2.0799,0.4799,9.4999,-0.8956,-1.2787,9.685,0.7082,-3.8754,-2.4057,0.6056,-0.8895,2.1674,10.564,24.01,-7.25,-39.19,238.82,7.49,5.28,2,1006.14,41.54,30.453468,-84.31873,95.62,NaN,,0,89.90968,,0 / 17,9904,2018-04-26 00:49:25:496,,,
-2.0074,-0.4543,11.9707,-0.3225,-0.6364,9.784,1.5103,1.1915,-0.7868,0.8246,-1.2099,1.7291,10.564,21.92,-11.34,-39.63,236.62,3.72,1.89,2,1006.14,41.54,30.453468,-84.31873,95.62,NaN,,0,89.90968,,0 / 17,10004,2018-04-26 00:49:25:596,,,
-1.4022,-1.2778,9.1652,0.526,-0.3929,9.788,2.0242,0.5961,0.7124,-0.0968,0.0892,1.9153,10.564,13.62,-17.4,-41.1,219.84,1.64,-1.61,2,1006.13,51.201,30.453468,-84.31873,95.62,NaN,,0,89.90968,,0 / 17,10103,2018-04-26 00:49:25:695,,,
-1.7388,-0.9961,11.0472,-0.246,-0.3823,9.7995,1.641,0.5762,-1.2588,0.1046,0.584,1.5824,10.564,10.52,-19.05,-40.58,209.68,2.51,-1.17,2,1006.14,51.201,30.453468,-84.31873,95.62,NaN,,0,89.90968,,0 / 17,10204,2018-04-26 00:49:25:796,,,
-0.6322,-0.2123,11.1683,-0.3009,-0.4719,9.794,-0.05,0.6877,-2.3741,-0.222,-0.2097,0.7024,10.564,9.09,-19.12,-40.86,200.26,2.76,1.76,2,1006.14,51.201,30.453468,-84.31873,95.62,NaN,,0,89.90968,,0 / 17,10303,2018-04-26 00:49:25:895,,,
0.6689,-1.1586,11.7728,0.6015,-0.3856,9.7839,0.9697,-0.3398,0.0175,0.041,-0.917,0.4308,13.734,7.07,-19.52,-41.62,197.45,3.73,-0.18,2,1006.13,51.201,30.453468,-84.31873,95.62,NaN,,0,89.90968,,0 / 17,10404,2018-04-26 00:49:25:996,,,
-0.6203,0.6954,9.8237,1.1952,0.4253,9.7276,0.9787,-0.7206,0.7782,1.0126,-0.3702,0.8867,13.734,1.17,-24.47,-40.32,194.77,-2.48,-7,2,1006.13,52.198,30.453468,-84.31873,95.62,NaN,,0,89.90968,,0 / 17,10503,2018-04-26 00:49:26:095,,,
-0.5081,1.0603,9.5107,1.0625,0.1015,9.7518,0.0658,0.199,1.6901,-0.3187,0.2343,0.8649,13.734,-1.57,-23.92,-40.61,185.94,-0.59,-6.22,2,1006.12,52.198,30.453468,-84.31873,95.62,NaN,,0,89.90968,,0 / 17,10603,2018-04-26 00:49:26:195,,,
1.4126,1.8585,8.767,0.3837,0.1982,9.8005,1.0917,-2.8105,0.4778,0.2519,0.7155,-0.5889,13.734,-0.98,-22.97,-40.78,186.26,0.46,-4.98,2,1006.12,52.198,30.453468,-84.31873,95.62,NaN,,0,89.90968,,0 / 17,10704,2018-04-26 00:49:26:296,,,
-0.7552,2.7386,9.0429,0.2145,0.2814,9.8036,0.3856,-0.1276,0.2571,-0.0768,0.1004,-0.1144,13.734,3.51,-23.83,-39.13,191.98,-1.64,-1.25,2,1006.12,36.106,30.453468,-84.31873,95.62,NaN,,0,89.90968,,0 / 17,10804,2018-04-26 00:49:26:396,,,
-0.0867,-0.6373,10.3527,-0.1525,0.6647,9.7863,-0.0837,1.0274,-0.7546,0.2977,0.5094,-0.1207,13.734,4.83,-24.46,-39.38,192.59,-1.76,-0.14,2,1006.11,36.106,30.453468,-84.31873,95.62,NaN,,0,89.90968,,0 / 17,10903,2018-04-26 00:49:26:495,,,
0.0625,-1.314,10.7989,0.2168,1.0946,9.7463,-0.0483,1.6393,-0.1319,0.0778,-0.4332,0.0834,13.734,5.35,-27.57,-37.92,193.91,-6.41,-1.27,2,1006.11,36.106,30.453468,-84.31873,95.62,NaN,,0,89.90968,,0 / 17,11004,2018-04-26 00:49:26:596,,,
0.0923,0.1766,9.7434,0.8492,0.9151,9.7302,0.6724,0.3166,0.9541,-0.0466,-0.5121,-0.16,15.847,3.68,-27.17,-38.96,193.4,-5.71,-2.18,2,1006.11,43.763,30.453468,-84.31873,95.62,NaN,,0,89.90968,,0 / 17,11104,2018-04-26 00:49:26:696,,,
0.1915,0.6606,8.815,0.5066,0.1074,9.7963,0.8929,2.8669,-0.0624,-0.6782,0.2746,0.1414,15.847,2,-25.13,-40.01,194.68,-2.86,-5.79,2,1006.1,43.763,30.453468,-84.31873,95.62,NaN,,0,89.90968,,0 / 17,11203,2018-04-26 00:49:26:795,,,
-1.4762,-0.6975,10.403,-0.2076,-0.3426,9.8018,1.1902,-0.4301,-1.3001,-0.6091,1.1779,0.5554,15.847,5.41,-21.66,-40.32,190.07,2,1.21,2,1006.12,43.763,30.453468,-84.31873,95.62,NaN,,0,89.90968,,0 / 17,11304,2018-04-26 00:49:26:896,,,
-1.1814,-0.2208,11.1647,-0.1595,-1.2385,9.7302,-0.247,-0.0953,0.0118,-0.8309,-0.2712,-0.1565,15.847,7.08,-19.93,-41.58,193.53,4.35,1.94,2,1006.12,36.575,30.453468,-84.31873,95.62,NaN,,0,89.90968,,0 / 17,11403,2018-04-26 00:49:26:995,,,
0.0685,-0.9118,10.8121,-0.1663,-0.867,9.7702,-0.1392,1.5696,0.5407,0.1667,-0.2291,0.3161,15.847,6.5,-18,-42.56,196.08,5.07,0.98,2,1006.12,36.575,30.453468,-84.31873,95.62,NaN,,0,89.90968,,0 / 17,11503,2018-04-26 00:49:27:095,,,
-0.2204,-2.5276,9.1376,-0.3398,-1.1936,9.7312,0.687,0.2138,0.6517,-0.2815,0.146,0.7603,15.847,4.59,-17.85,-42.8,191.68,6.23,0.45,2,1006.12,36.575,30.453468,-84.31873,95.62,NaN,,0,89.90968,,17-Jul,11603,2018-04-26 00:49:27:195,,,
-0.4771,-1.4091,9.1856,-0.2086,-1.5683,9.6816,0.2396,-1.1334,0.1277,-0.3548,-0.0764,0.2442,15.847,3.63,-17.07,-44.02,187.3,9.2,1.23,2,1006.12,36.575,30.453468,-84.31873,95.62,NaN,,0,89.90968,,17-Jul,11703,2018-04-26 00:49:27:295,,,
-0.3338,-1.3393,9.4891,-0.2214,-1.4163,9.7047,0.0839,-1.4698,-0.0136,0.2277,0.5203,-0.0674,15.847,4.03,-16.48,-43.64,186.69,9.4,1.7,2,1006.11,35.116,30.453468,-84.31873,95.62,NaN,,0,89.90968,,17-Jul,11803,2018-04-26 00:49:27:395,,,
-0.3625,-1.5704,10.1056,-1.2027,-1.3121,9.6472,0.2556,-0.4168,-0.8063,-0.0129,0.9514,0.3121,15.847,6.99,-16.95,-42.63,187.87,8.06,5.08,2,1006.11,35.116,30.453468,-84.31873,95.62,NaN,,0,89.90968,,17-Jul,11903,2018-04-26 00:49:27:495,,,
-1.6266,-0.8179,10.7329,-1.1211,-1.2205,9.669,-0.3612,0.0762,-1.2716,0.3813,-0.1142,-0.0862,15.847,8.36,-17.63,-42.88,187.33,7.15,6.61,2,1006.1,35.116,30.453468,-84.31873,95.62,NaN,,0,89.90968,,17-Jul,12004,2018-04-26 00:49:27:596,,,
-1.7651,-0.3544,10.7989,-0.9292,-0.6211,9.7461,0.8094,-0.8104,0.5953,0.5004,-0.2614,0.0208,15.847,7.52,-20.16,-41.63,189.96,3.63,5.45,2,1006.11,31.5,30.453468,-84.31873,95.62,NaN,,0,89.90968,,17-Jul,12104,2018-04-26 00:49:27:696,,,
-2.4395,-0.1244,8.6879,-0.9188,-0.1521,9.7657,1.1598,-0.417,0.9231,0.7636,-0.0254,-0.1226,15.847,6.92,-22.5,-40.78,187.87,0.89,5.37,2,1006.12,31.5,30.453468,-84.31873,95.62,NaN,,0,89.90968,,17-Jul,12204,2018-04-26 00:49:27:796,,,
-2.2449,1.1614,8.7023,-1.1671,0.2279,9.7377,0.8273,-0.8646,0.5293,0.295,0.3707,-0.1723,15.847,8.64,-24.02,-39.97,191.57,-1,6,2,1006.12,31.5,30.453468,-84.31873,95.62,NaN,,0,89.90968,,17-Jul,12304,2018-04-26 00:49:27:896,,,
-2.2402,1.1494,9.3667,-0.9359,-0.4332,9.7556,1.0468,-1.6628,0.7005,-0.6501,-0.2251,0.136,15.847,7.2,-22.2,-40.82,186.25,0.55,6.31,2,1006.12,34.151,30.453468,-84.31873,95.62,NaN,,0,89.90968,,17-Jul,12403,2018-04-26 00:49:27:995,,,
-2.2462,2.0728,8.7358,-0.8916,-0.4088,9.7608,0.8076,-1.951,1.3165,0.6473,0.0055,-0.118,15.847,6.93,-21.21,-41,187.62,2.53,5.48,2,1006.12,34.151,30.453468,-84.31873,95.62,NaN,,0,89.90968,,17-Jul,12505,2018-04-26 00:49:28:097,,,
-2.9827,0.6967,10,-1.7526,-0.6443,9.6306,1.7237,-1.1522,-0.4114,-0.403,1.5068,-0.8285,9.508,9.81,-21.82,-40.71,191.02,-0.19,7.92,2,1006.11,34.151,30.453468,-84.31873,95.62,NaN,,0,89.90968,,0 / 17,12604,2018-04-26 00:49:28:196,,,
-2.0862,-0.1244,8.7406,-1.1501,0.3585,9.7357,-0.5517,-0.254,-1.6385,1.703,-0.1939,-1.0644,9.508,10.25,-22.99,-38.84,193.97,-2.09,6.74,2,1006.1,45.794,30.453468,-84.31873,95.62,NaN,,0,89.90968,,0 / 17,12704,2018-04-26 00:49:28:296,,,
-2.2772,1.1433,8.2513,-1.5791,0.9943,9.6309,-0.022,-3.8749,3.1055,0.2713,0.4941,1.1934,9.508,11.99,-25.5,-37.64,196.24,-4.66,7.97,2,1006.09,45.794,30.453468,-84.31873,95.62,NaN,,0,89.90968,,0 / 17,12804,2018-04-26 00:49:28:396,,,
-0.8483,-0.1281,9.9713,-2.136,0.0787,9.5743,-2.1376,3.8202,-2.7917,-1.8505,1.8351,0.5693,9.508,11.75,-23.9,-37.87,188.26,-0.46,12.58,2,1006.09,45.794,30.453468,-84.31873,95.62,NaN,,0,89.90968,,0 / 17,12903,2018-04-26 00:49:28:495,,,
-0.7325,-4.2228,12.8715,-2.8355,-0.242,9.3882,-0.8149,5.67,4.9481,2.5781,-2.6282,2.1831,9.508,15.1,-19.97,-38.22,189.12,1.41,16.81,2,1006.06,45.794,30.453468,-84.31873,95.62,NaN,,0,89.90968,,0 / 17,13004,2018-04-26 00:49:28:596,,,
-1.1372,-5.0065,3.7054,4.2951,3.7815,7.9679,2.1739,8.4928,6.0478,3.885,-5.262,4.1178,9.508,-10.81,-33.83,-30.39,156.38,-11.36,1.98,2,1006.06,46.552,30.453468,-84.31873,95.62,NaN,,0,89.90968,,0 / 17,13104,2018-04-26 00:49:28:696,,,
3.4599,-2.489,-2.4334,8.6597,2.0862,4.1102,-7.4032,4.8444,4.7302,3.8271,-4.5337,8.814,9.508,-44.02,-11.17,6.15,96.67,-12.28,-64.61,2,1006.08,46.552,30.453468,-84.31873,95.62,NaN,,0,89.90968,,0 / 17,13204,2018-04-26 00:49:28:796,,,
20.1852,0.4691,-0.7973,8.6009,-4.2606,2.0269,-10.4789,-3.39,1.065,2.3421,-2.2556,6.2,7.395,-42.74,9.98,14.13,85.14,11.61,-77.57,2,1006.1,46.552,30.453468,-84.31873,95.62,NaN,,0,89.90968,,0 / 17,13303,2018-04-26 00:49:28:895,,,
17.0111,-1.9509,0.6696,8.0635,-5.1015,2.2784,-3.1779,-0.6213,-3.4845,0.2935,-0.8205,1.2296,7.395,-37.49,24.98,13.56,78.43,31.33,-74.22,0,1006.1,50.855,30.453468,-84.31873,95.62,NaN,,0,89.90968,,0 / 17,13403,2018-04-26 00:49:28:995,,,
5.4104,-5.6651,2.4124,7.6772,-5.8678,1.6927,0.9383,-0.1198,0.3109,0.1173,-0.4908,0.7572,7.395,-34.7,27.2,16.27,82,36.74,-77.57,0,1006.14,50.855,30.453468,-84.31873,95.62,NaN,,0,89.90968,,0 / 17,13503,2018-04-26 00:49:29:095,,,
9.216,-5.7891,1.7899,7.4017,-6.2724,1.452,-0.1273,0.4522,-0.1928,0.0433,-0.1414,0.3721,7.395,-33.97,29.31,16.43,79.7,38.4,-78.07,0,1006.18,50.855,30.453468,-84.31873,95.62,NaN,,0,89.90968,,0 / 17,13603,2018-04-26 00:49:29:195,,,
6.7008,-5.7036,1.4036,7.3894,-6.3114,1.3416,1.2331,-1.3928,0.1963,0.3883,-0.1714,-0.1734,7.395,-31.76,30.11,17.05,78.26,40.04,-79.71,0,1006.18,52.446,30.453468,-84.31873,95.62,NaN,,0,89.90968,,0 / 17,13704,2018-04-26 00:49:29:296,,,
6.098,-4.2793,1.3833,7.6535,-5.9499,1.5026,0.6103,-1.2714,-0.519,0.3994,-0.1043,-0.3935,7.395,-31.97,29.94,15.66,74.88,38.43,-78.86,0,1006.17,52.446,30.453468,-84.31873,95.62,NaN,,0,89.90968,,0 / 17,13804,2018-04-26 00:49:29:396,,,
7.5114,-4.4527,2.4963,7.5749,-6.0771,1.3878,3.6094,3.3245,1.8651,-0.9787,0.2082,1.2471,7.395,-31.37,30.48,18.6,74.39,38.28,-79.62,0,1006.17,52.446,30.453468,-84.31873,95.62,NaN,,0,89.90968,,0 / 17,13904,2018-04-26 00:49:29:496,,,
9.9764,-7.3278,0.0471,5.2577,-8.2748,-0.3486,-0.6033,-0.6574,0.9984,-2.1234,0.3199,2.9641,0.473,-26.06,33.31,20.5,78.26,48.14,-82.22,0,1006.17,55.866,30.453468,-84.31873,95.62,NaN,,0,89.90968,,0 / 17,14006,2018-04-26 00:49:29:598,,,
6.1171,-7.335,-2.4046,4.5109,-8.6384,-1.125,-0.1783,1.4748,0.2341,0.2692,-0.9975,0.4093,0.473,-17.87,33.47,27.74,100.98,61.13,-102,0,1006.09,55.866,30.453468,-84.31873,95.62,NaN,,0,89.90968,,0 / 17,14106,2018-04-26 00:49:29:698,,,
4.545,-10.1174,-1.7149,4.6025,-8.5159,-1.5913,-0.0643,2.0122,-0.4357,-0.5521,-1.0663,-0.4023,0.473,-14.96,33.86,29.95,99.53,60.24,-109.07,0,1006.11,55.866,30.453468,-84.31873,95.62,NaN,,0,89.90968,,0 / 17,14203,2018-04-26 00:49:29:795,,,
5.3448,-8.6883,-2.4058,4.6866,-8.3259,-2.2252,-0.0608,-1.2984,1.2013,-0.4304,-0.1162,-0.1564,0.473,-14.5,32.6,30.89,101.06,58.23,-114.48,0,1006.11,55.866,30.453468,-84.31873,95.62,NaN,,0,89.90968,,0 / 17,14304,2018-04-26 00:49:29:896,,,
4.6655,-7.2134,-2.5473,4.5292,-8.4178,-2.2053,-0.31,-1.7857,1.3874,-0.2426,0.4449,0.254,0.473,-14.49,32.34,31.04,105.46,59.1,-115.96,0,1006.11,50.216,30.453468,-84.31873,95.62,NaN,,0,89.90968,,0 / 17,14403,2018-04-26 00:49:29:995,,,
4.8159,-6.3538,-3.5512,4.5852,-8.3724,-2.2616,-0.8057,-2.0059,1.6106,-0.2841,0.5141,0.0846,0.473,-14.72,30.77,30.74,108.37,58.59,-116.25,0,1006.11,50.216,30.453468,-84.31873,95.62,NaN,,0,89.90968,,0 / 17,14504,2018-04-26 00:49:30:096,,,
5.2433,-6.7102,-3.7192,4.5608,-8.3321,-2.4517,-1.0875,1.9964,-1.1822,-0.4334,0.4914,0.1059,0.473,-16.95,30.15,31.61,114.15,57.87,-117.27,0,1006.12,50.216,30.453468,-84.31873,95.62,NaN,,0,89.90968,,0 / 17,14603,2018-04-26 00:49:30:195,,,
3.7965,-10.5749,-1.7461,4.2906,-8.5083,-2.3314,0.2718,1.5052,-0.736,0.3346,0.2146,0.4124,0.473,-16.2,30.25,32.44,113.6,58.14,-118.26,0,1006.11,48.775,30.453468,-84.31873,95.62,NaN,,0,89.90968,,0 / 17,14703,2018-04-26 00:49:30:295,,,
4.4674,-8.8039,-0.6594,4.3048,-8.6342,-1.7763,-0.5296,-0.0099,-1.1563,0.1088,0.8277,0.0473,0.473,-17.62,31.99,30.46,118.76,61.36,-116.11,0,1006.14,48.775,30.453468,-84.31873,95.62,NaN,,0,89.90968,,0 / 17,14804,2018-04-26 00:49:30:396,,,
5.0977,-7.2158,-1.8756,4.2223,-8.7288,-1.489,-0.7333,-1.347,0.2533,0.3756,0.3829,0.3575,0.473,-18.61,32.42,28.31,115.6,62.85,-109.43,0,1006.14,48.775,30.453468,-84.31873,95.62,NaN,,0,89.90968,,0 / 17,14904,2018-04-26 00:49:30:496,,,
5.2588,-6.6307,-2.0939,3.8525,-8.9632,-1.0274,-1.2411,-1.9184,0.832,0.4504,-0.0385,0.3538,0.473,-18.97,33.16,28.43,113.62,64.56,-106.36,0,1006.19,37.822,30.453468,-84.31873,95.62,NaN,,0,89.90968,,0 / 17,15004,2018-04-26 00:49:30:596,,,
6.0097,-9.2939,-1.2483,3.6838,-9.0447,-0.9274,-2.2959,1.1799,0.0828,0.2808,-0.1004,0.213,0.473,-16.4,35.41,26.84,107.05,67.22,-104.13,0,1006.19,37.822,30.453468,-84.31873,95.62,NaN,,0,89.90968,,0 / 17,15104,2018-04-26 00:49:30:696,,,
0.8719,-12.1232,-1.6957,4.0193,-8.9085,-0.848,0.464,1.951,-1.5631,0.2524,-0.2882,-0.2659,0.473,-16.87,35.12,27.24,103.53,65.25,-101.91,0,1006.21,37.822,30.453468,-84.31873,95.62,NaN,,0,89.90968,,0 / 17,15204,2018-04-26 00:49:30:796,,,
5.574,-9.867,-1.7293,4.8507,-8.2972,-1.9655,-0.6607,2.2349,0.2103,-1.1449,0.009,-0.8054,0.473,-20.17,30.18,30.02,113.29,60.91,-107.07,0,1006.1,38.951,30.453468,-84.31873,95.62,NaN,,0,89.90968,,0 / 17,15303,2018-04-26 00:49:30:895,,,
3.9302,-7.3013,-2.9491,4.878,-8.1921,-2.3089,0.9561,-0.547,0.5349,-0.2229,-0.6298,-0.1933,0.473,-19.92,29.39,30.97,115.35,57.76,-112.06,0,1006.1,38.951,30.453468,-84.31873,95.62,NaN,,0,89.90968,,0 / 17,15403,2018-04-26 00:49:30:995,,,Out
2.9263,-4.4082,-3.177,4.7795,-8.1253,-2.7152,1.6244,-3.8901,1.1985,-0.2102,-0.4307,-0.0175,0.473,-18.03,27.73,33.06,116.75,55.68,-118.51,0,1006.04,38.951,30.453468,-84.31873,95.62,NaN,,0,89.90968,,0 / 17,15503,2018-04-26 00:49:31:095,,,Out
5.3722,-8.97,-3.3174,4.7649,-8.1734,-2.5938,-0.7385,-1.9197,1.5632,0.1056,0.0379,-0.1295,0.473,-18.61,27.91,32.95,120.16,56.43,-118.56,0,1006.07,38.951,30.453468,-84.31873,95.62,NaN,,0,89.90968,,0 / 17,15603,2018-04-26 00:49:31:195,,,Out
8.1572,-14.5287,0.666,4.8042,-7.9115,-3.2502,-1.7264,9.5127,-0.879,-0.2937,-0.057,-0.2003,0.473,-17.41,27.06,34.84,119.94,53.75,-124.08,0,1006.07,40.873,30.453468,-84.31873,95.62,NaN,,0,89.90968,,0 / 17,15704,2018-04-26 00:49:31:296,,,Out
5.525,-6.9052,0.3301,4.7635,-7.972,-3.1612,-0.923,-0.3684,-4.2232,-0.3527,0.0294,0.1636,0.473,-18.13,24.33,34.72,125,52.94,-124.3,0,1006.12,40.873,30.453468,-84.31873,95.62,NaN,,0,89.90968,,0 / 17,15804,2018-04-26 00:49:31:396,,,Out
2.4583,-7.453,-1.1536,4.4066,-8.4019,-2.4953,1.5221,-1.5443,-1.0524,0.3431,1.0057,0.6738,0.473,-16.61,29.19,33.43,119.75,58.92,-119.52,0,1006.11,40.873,30.453468,-84.31873,95.62,NaN,,0,89.90968,,0 / 17,15903,2018-04-26 00:49:31:495,,,Out
6.2603,-6.9461,-1.4318,4.5615,-8.5097,-1.7358,-1.5611,-1.3551,-1.0366,0.0352,1.1884,-0.043,0.473,-19.43,29.32,30.27,115.68,60.16,-110.83,0,1006.11,46.207,30.453468,-84.31873,95.62,NaN,,0,89.90968,,0 / 17,16003,2018-04-26 00:49:31:595,,,Out
5.6265,-7.7588,-1.6909,4.328,-8.6776,-1.4846,-1.5714,-1.0991,0.4638,0.5847,-0.1907,0.4874,0.473,-20.68,31.03,29.72,117.83,60.16,-110.83,0,1006.23,46.207,30.453468,-84.31873,95.62,NaN,,0,89.90968,,0 / 17,16103,2018-04-26 00:49:31:695,,,Out
4.7097,-8.9267,-1.2051,3.9104,-8.9246,-1.1389,-1.0961,-0.2094,0.3616,0.4557,-0.3961,0.345,0.473,-17.24,33.07,28.25,109.04,64.09,-106.92,0,1006.23,46.207,30.453468,-84.31873,95.62,NaN,,0,89.90968,,0 / 17,16204,2018-04-26 00:49:31:796,,,Out
3.2366,-9.1313,1.49,4.4823,-8.644,-1.1943,-1.2692,2.641,-2.3088,6.00E-04,-0.0843,-0.4986,0.473,-17.58,34.58,27.82,109.15,65.29,-105.05,0,1006.23,49.52,30.453468,-84.31873,95.62,NaN,,0,89.90968,,0 / 17,16304,2018-04-26 00:49:31:896,,,Out
4.9604,-10.8723,-1.3839,4.9933,-8.298,-1.5644,0.9083,6.0678,-0.1154,-0.7705,0.0718,-0.8069,0.473,-20.8,30.36,30.17,110.9,57.76,-107.4,0,1006.04,49.52,30.453468,-84.31873,95.62,NaN,,0,89.90968,,0 / 17,16403,2018-04-26 00:49:31:995,,,Out
4.274,-6.4886,-1.8984,5.3866,-7.8653,-2.3146,1.4361,-1.1887,-0.2723,-0.5647,-0.3198,-0.4999,0.473,-21.58,28.42,32.4,112.95,54.5,-110.12,0,1006.04,49.52,30.453468,-84.31873,95.62,NaN,,0,89.90968,,0 / 17,16504,2018-04-26 00:49:32:096,,,Out
2.3724,-5.505,-1.6753,5.2335,-7.886,-2.5801,2.918,-2.5433,-0.7636,0.1151,-0.4074,0.0952,0.473,-18.59,27.66,32.33,112.53,53.5,-116.24,0,1006,37.653,30.453468,-84.31873,95.62,NaN,,0,89.90968,,0 / 17,16604,2018-04-26 00:49:32:196,,,Out
3.9039,-8.6197,-3.1914,5.1655,-8.0591,-2.1458,1.6761,0.2707,0.8272,0.2914,0.5029,0.157,0.473,-19.03,28.2,31.88,110.97,55.24,-112.56,0,1006.01,37.653,30.453468,-84.31873,95.62,NaN,,0,89.90968,,0 / 17,16704,2018-04-26 00:49:32:296,,,Out
6.0861,-12.0811,2.043,5.2599,-8.0285,-2.0279,-1.7777,3.4079,-8.8544,-0.9736,1.4466,-0.2149,0.473,-19.12,28.16,31.32,108.86,54.93,-111.08,0,1006.29,37.653,30.453468,-84.31873,95.62,NaN,,0,89.90968,,0 / 17,16803,2018-04-26 00:49:32:395,,,Out
3.442,-11.3695,-1.1536,5.5469,-7.8245,-2.0603,3.1437,1.6116,-2.2572,-1.4085,1.7344,-0.3318,0.473,-25.6,23.08,30.11,120.97,50.33,-109.3,0,1006.29,37.653,30.453468,-84.31873,95.62,NaN,,0,89.90968,,0 / 17,16903,2018-04-26 00:49:32:495,,,Out
6.3893,-9.7839,-0.5107,4.8565,-8.377,-1.5739,0.2507,0.4585,-2.6549,-0.2457,1.003,0.8101,0.473,-26.19,25.38,29.03,126.77,55.02,-109.87,0,1006.53,62.818,30.453468,-84.31873,95.62,NaN,,0,89.90968,,0 / 17,17004,2018-04-26 00:49:32:596,,,Out
0.8372,-15.9013,0.4429,4.1429,-8.8026,-1.2599,0.9008,1.702,0.3889,0.3719,1.4863,0.5375,0.473,-26.05,29.98,24.91,133.66,63.81,-106.92,0,1006.53,62.818,30.453468,-84.31873,95.62,NaN,,0,89.90968,,0 / 17,17104,2018-04-26 00:49:32:696,,,Out
4.3468,-10.5207,1.2873,5.5075,-8.1131,0.2846,-4.704,-0.8292,8.0514,0.1891,3.0059,-0.5016,0.473,-30.13,29.37,20.99,133.2,64.81,-96.03,0,1005.98,62.818,30.453468,-84.31873,95.62,NaN,,0,89.90968,,0 / 17,17204,2018-04-26 00:49:32:796,,,Out
-3.5831,-4.2107,0.8783,5.7097,-7.9241,0.9187,15.2499,0.167,-0.135,-1.2368,2.6415,0.5069,0.473,-39.32,20.9,11.59,133.6,53.88,-80.86,0,1005.82,56.221,30.453468,-84.31873,95.62,NaN,,0,89.90968,,0 / 17,17303,2018-04-26 00:49:32:895,,,Out
4.6727,-8.7533,1.093,6.1209,-7.642,-0.6084,7.036,-1.4324,-2.7321,-1.7394,-0.2483,-0.8083,0.473,-41.56,15.12,11.98,162.08,51.17,-95.68,2,1005.87,56.221,30.453468,-84.31873,95.62,NaN,,0,89.90968,,0 / 17,17403,2018-04-26 00:49:32:995,,,Out
1.2157,-10.0765,-0.0897,4.7459,-8.0969,-2.8555,5.0174,2.8412,-2.9356,-1.0135,-1.6388,0.9536,0.473,-40.14,15.73,18.24,170.55,51.44,-108.97,2,1005.87,56.221,30.453468,-84.31873,95.62,NaN,,0,89.90968,,0 / 17,17504,2018-04-26 00:49:33:096,,,Out
0.053,-9.7514,-1.006,3.6586,-8.1184,-4.116,2.9304,1.8597,-3.4155,-0.6512,-3.7242,0.3476,3.169,-32.03,18.84,26.83,194.2,55.85,-138.37,2,1005.93,52.655,30.453468,-84.31873,95.62,NaN,,0,89.90968,,0 / 17,17604,2018-04-26 00:49:33:196,,,Out
-2.7917,-10.6676,-3.3269,1.0271,-8.2484,-5.2101,5.8959,3.0501,-0.5241,0.1596,-4.3419,-0.0404,3.169,-15.04,19.11,38.78,172.85,55.68,-154.88,2,1005.93,52.655,30.453468,-84.31873,95.62,NaN,,0,89.90968,,0 / 17,17704,2018-04-26 00:49:33:296,,,Out
-9.8812,-15.1512,-7.7313,-0.2397,-8.5875,-4.7364,6.6621,3.9401,2.0803,1.3145,-5.1631,-0.7504,3.169,7.21,23.73,39.24,167.58,61.09,177.1,2,1005.98,52.655,30.453468,-84.31873,95.62,NaN,,0,89.90968,,0 / 17,17803,2018-04-26 00:49:33:395,,,Out
-12.5671,-14.66,-9.0975,-2.1646,-9.3343,-2.1029,11.0836,5.5171,6.8851,1.6319,-5.2532,-0.41,3.169,18.1,27.43,32.53,167.31,66.43,159.42,2,1005.99,47.589,30.453468,-84.31873,95.62,NaN,,0,89.90968,,0 / 17,17903,2018-04-26 00:49:33:495,,,Out
-10.1462,-10.3823,-6.0353,-2.8576,-9.3727,-0.4717,6.6763,1.1685,6.9755,1.4736,-4.6281,0.528,3.169,31.2,31.8,13.73,201.76,72.83,99.37,2,1005.99,47.589,30.453468,-84.31873,95.62,NaN,,0,89.90968,,0 / 17,18004,2018-04-26 00:49:33:596,,,Out
-7.877,-8.9532,-5.0518,-3.4341,-8.8039,2.6333,3.492,-1.7034,6.4363,1.1306,-3.1535,1.5261,3.169,35.86,28.85,-7.29,224.45,63.82,52.52,2,1006.03,47.589,30.453468,-84.31873,95.62,NaN,,0,89.90968,,0 / 17,18104,2018-04-26 00:49:33:696,,,Out
-5.0848,-5.942,-3.3174,-4.2439,-7.5685,4.5765,-0.5472,-2.2071,6.4914,0.78,-2.8596,1.9911,3.169,37.36,18.29,-22.22,210.82,50.49,42.84,2,1006.06,47.589,30.453468,-84.31873,95.62,NaN,,0,89.90968,,0 / 17,18203,2018-04-26 00:49:33:795,,,Out
-1.7197,-5.9216,-1.7185,-4.045,-7.6816,4.568,3.6841,-2.2716,-0.9984,-1.4045,-0.8896,0.3866,5.282,35.03,16.93,-26.02,201.44,51.54,41.53,0,1006.06,38.044,30.453468,-84.31873,95.62,NaN,,0,89.90968,,0 / 17,18303,2018-04-26 00:49:33:895,,,Out
-5.437,-4.7585,4.1516,-5.9322,-6.3988,4.4833,-0.7458,-5.5111,0.4461,0.4205,0.1246,2.317,5.282,36.32,12.98,-26.65,190.26,50.23,47.11,0,1006.08,38.044,30.453468,-84.31873,95.62,NaN,,0,89.90968,,0 / 17,18404,2018-04-26 00:49:33:996,,,Out
-5.3522,-1.0708,4.1072,-6.7252,-5.4595,4.6045,0.8023,-5.1636,-0.8262,-0.8592,-1.0942,3.4362,5.282,36.02,0.64,-28.22,173.56,33.82,55.6,0,1006.08,38.044,30.453468,-84.31873,95.62,NaN,,0,89.90968,,0 / 17,18504,2018-04-26 00:49:34:096,,,
-11.0547,2.0547,7.0314,-8.5531,-1.3062,4.6233,3.318,-2.9773,-0.7859,-1.3425,-0.5339,5.3365,5.282,33.4,-7.68,-31.17,159.4,22.17,58.36,0,1006.1,36.959,30.453468,-84.31873,95.62,NaN,,0,89.90968,,0 / 17,18605,2018-04-26 00:49:34:197,,,
-11.7267,4.618,7.2893,-7.9812,1.4276,5.5226,2.6009,-3.0138,-0.2372,-3.197,-0.6803,4.5348,5.282,25.86,-12.88,-38.01,117.8,-2.95,60.97,0,1006.12,36.959,30.453468,-84.31873,95.62,NaN,,0,89.90968,,0 / 17,18704,2018-04-26 00:49:34:296,,,
-11.3722,4.3567,7.3961,-7.4136,1.2891,6.2938,3.7416,-2.9667,-0.8548,-4.6733,-0.552,3.4885,5.282,14.79,-0.52,-45.12,80,-7.55,49.67,0,1006.12,36.959,30.453468,-84.31873,95.62,NaN,,0,89.90968,,0 / 17,18803,2018-04-26 00:49:34:395,,,
-10.2274,4.1292,6.0011,-6.7224,0.4171,7.1325,3.0327,-3.309,0.2993,-4.1236,-0.6856,3.0279,5.282,14.19,16.54,-41.51,44.89,-2.44,43.3,0,1006.12,34.262,30.453468,-84.31873,95.62,NaN,,0,89.90968,,0 / 17,18905,2018-04-26 00:49:34:497,,,
-9.362,3.6669,6.7208,-7.4602,-0.1919,6.3675,1.1549,-2.058,1.6331,-4.0905,2.3145,2.9935,1.467,19.69,24.21,-35.2,30.39,1.12,49.52,0,1006.13,34.262,30.453468,-84.31873,95.62,NaN,,0,89.90968,,0 / 17,19003,2018-04-26 00:49:34:595,,,
-9.0373,0.734,3.7366,-8.8309,0.5514,4.2365,0.0469,0.6558,0.7422,-3.6703,2.1396,2.9017,1.467,35.17,25.76,-18.15,353.77,0.58,58.71,0,1006.13,34.262,30.453468,-84.31873,95.62,NaN,,0,89.90968,,0 / 17,19103,2018-04-26 00:49:34:695,,,
-8.9191,-0.1425,3.2784,-9.0515,1.4145,3.508,0.4525,0.1732,1.2514,-1.1067,1.583,1.5115,1.467,40.44,22.59,-11.44,343.7,-3.22,64.37,0,1006.13,34.262,30.453468,-84.31873,95.62,NaN,,0,89.90968,,0 / 17,19204,2018-04-26 00:49:34:796,,,
-10.4077,0.9928,1.6747,-9.4306,2.0108,1.8048,0.8887,1.3377,0.409,-0.4172,2.0733,0.6235,1.467,43.27,18.65,-6.79,340.14,-8.29,68.82,0,1006.13,33.085,30.453468,-84.31873,95.62,NaN,,0,89.90968,,0 / 17,19303,2018-04-26 00:49:34:895,,,
-10.3157,0.6979,1.2585,-9.2045,3.1063,-1.365,-0.1851,0.0911,1.1132,-0.5541,3.0565,0.9858,1.467,44.98,12.9,10.72,332.03,-14.33,88.02,0,1006.12,33.085,30.453468,-84.31873,95.62,NaN,,0,89.90968,,0 / 17,19403,2018-04-26 00:49:34:995,,,
-8.5848,3.3647,-2.7644,-8.793,3.4762,-2.6145,-1.1068,0.5552,1.3747,7.00E-04,1.6739,0.3806,1.467,40.41,9.02,23.05,336.36,-20.75,106.56,0,1006.12,33.085,30.453468,-84.31873,95.62,NaN,,0,89.90968,,0 / 17,19503,2018-04-26 00:49:35:095,,,
-8.0978,2.0559,-3.7803,-8.2999,3.4369,-3.9416,-0.6049,0.969,0.3138,0.8496,0.929,0.3773,1.467,37.35,9.28,26.22,342.43,-20.51,115.4,0,1006.11,29.256,30.453468,-84.31873,95.62,NaN,,0,89.90968,,0 / 17,19604,2018-04-26 00:49:35:196,,,
-7.7003,1.944,-4.1857,-8.2433,3.1676,-4.2722,-0.628,1.1132,-0.0742,0.2988,0.4875,-0.2057,1.467,36.51,10.99,27.41,344.49,-18.84,117.4,0,1006.11,29.256,30.453468,-84.31873,95.62,NaN,,0,89.90968,,0 / 17,19703,2018-04-26 00:49:35:295,,,
-7.3255,1.9416,-4.7207,-7.9415,2.9509,-4.9458,0.1004,0.109,0.6516,0.3506,0.5296,0.0338,1.467,34,12.47,28.89,344.97,-17.51,121.91,0,1006.12,29.256,30.453468,-84.31873,95.62,NaN,,0,89.90968,,0 / 17,19804,2018-04-26 00:49:35:396,,,
-7.5009,2.6242,-5.5399,-7.6816,2.6827,-5.4802,-0.046,0.398,0.4655,0.0535,0.5303,-0.2269,1.467,32.74,13.38,31.03,343.93,-16.75,123.94,0,1006.12,29.5,30.453468,-84.31873,95.62,NaN,,0,89.90968,,0 / 17,19903,2018-04-26 00:49:35:495,,,
-7.5881,2.3401,-5.3276,-7.6267,2.4915,-5.6446,-0.3517,0.053,-0.1479,0.1006,0.2269,-0.3243,1.467,30.56,14.4,30.96,344.04,-15.87,125.5,0,1006.12,29.5,30.453468,-84.31873,95.62,NaN,,0,89.90968,,0 / 17,20003,2018-04-26 00:49:35:595,,,
-7.2562,2.2413,-5.312,-7.4772,2.4058,-5.877,-0.5057,0.2242,-0.2362,-0.0161,0.3098,-0.0641,1.467,30.8,14.83,32.86,343.34,-13.91,127.16,0,1006.13,29.5,30.453468,-84.31873,95.62,NaN,,0,89.90968,,0 / 17,20103,2018-04-26 00:49:35:695,,,
-7.1022,2.0668,-5.1477,-7.4695,2.5476,-5.8268,0.3093,0.3611,-0.5751,-0.4319,0.1675,0.0873,1.467,29.2,14.29,33.08,341.69,-15.05,127.96,0,1006.14,26.974,30.453468,-84.31873,95.62,NaN,,0,89.90968,,0 / 17,20204,2018-04-26 00:49:35:796,,,
-7.7134,2.2004,-5.2581,-7.1601,3.1254,-5.933,-1.8383,-0.6054,2.3344,-0.7285,0.4854,0.0851,1.467,27.88,10.6,34.24,341.04,-18.58,129.65,0,1006.14,26.974,30.453468,-84.31873,95.62,NaN,,0,89.90968,,0 / 17,20304,2018-04-26 00:49:35:896,,,
-7.1428,4.7107,-7.9052,-6.7611,3.3296,-6.2799,0.2296,0.8802,0.355,0.2261,0.6749,0.4215,1.467,28.2,10.42,35.37,341.9,-18.77,131.4,0,1006.13,26.974,30.453468,-84.31873,95.62,NaN,,0,89.90968,,0 / 17,20404,2018-04-26 00:49:35:996,,,
-7.6287,3.1251,-6.3939,-6.8593,2.8712,-6.3986,1.1442,0.4734,0.9501,0.7792,0.1364,-0.6503,1.467,26.62,11.56,36.39,342.07,-17.02,133.01,0,1006.13,47.912,30.453468,-84.31873,95.62,NaN,,0,89.90968,,0 / 17,20503,2018-04-26 00:49:36:095,,,
-8.4392,0.3969,-7.9652,-7.1477,2.8649,-6.0778,1.7476,3.2,3.1724,-0.1793,-0.2094,-0.1023,1.467,26.72,12.78,36.16,341.26,-14.38,132.89,0,1006.13,47.912,30.453468,-84.31873,95.62,NaN,,0,89.90968,,17-Aug,20603,2018-04-26 00:49:36:195,,,
-7.0581,1.5117,-6.3579,-7.8449,2.5184,-5.3246,0.9042,4.7441,0.856,0.4297,-1.1063,-1.5238,1.467,31.43,14.15,31.12,341.47,-14.88,124.17,0,1006.14,47.912,30.453468,-84.31873,95.62,NaN,,0,89.90968,,17-Aug,20704,2018-04-26 00:49:36:296,,,
-6.9327,-2.6961,-5.5135,-9.2534,1.8385,-2.6891,-0.5899,5.2435,2.0538,-1.0779,-2.5215,-0.6533,1.467,34,14.39,27.45,342.65,-11.95,119.11,2,1006.14,47.912,30.453468,-84.31873,95.62,NaN,,0,89.90968,,17-Aug,20804,2018-04-26 00:49:36:396,,,
-12.3045,-4.165,-2.6781,-9.1817,2.0463,2.7832,0.3713,3.342,0.6299,-0.1249,-4.6885,0.4915,1.467,43.26,14.47,7.25,338.17,-10.38,87.86,2,1006.14,45.812,30.453468,-84.31873,95.62,NaN,,0,89.90968,,17-Aug,20904,2018-04-26 00:49:36:496,,,
-9.812,-1.0515,2.4184,-8.0988,2.333,5.0203,0.056,2.4715,-0.436,1.673,-4.3551,-0.3351,1.467,42.05,13.72,-15.6,340.51,-13.76,58.21,2,1006.14,45.812,30.453468,-84.31873,95.62,NaN,,0,89.90968,,17-Aug,21004,2018-04-26 00:49:36:596,,,
-7.2777,1.9343,6.5001,-6.1537,2.4861,7.2241,-2.7392,-1.1156,0.6836,1.0679,-2.7075,-0.9403,1.467,38.36,13.77,-24.4,340.66,-15.38,46.38,2,1006.14,45.812,30.453468,-84.31873,95.62,NaN,,0,89.90968,,17-Aug,21104,2018-04-26 00:49:36:696,,,
-3.2835,3.6356,6.0323,-5.5447,2.0574,7.8269,1.778,-0.5449,-0.3854,1.3674,-1.9432,-3.0956,9.508,27.94,16.92,-33.54,352.95,-12.11,35.31,2,1006.15,52.194,30.453468,-84.31873,95.62,NaN,,0,89.90968,,17-Aug,21204,2018-04-26 00:49:36:796,,,
-7.7552,3.7006,9.5275,-5.4687,1.5643,7.9927,2.7812,-1.6644,-0.6658,1.6582,-0.6155,-3.3317,9.508,17.02,17.53,-41.84,21.31,-9.18,34.38,2,1006.15,52.194,30.453468,-84.31873,95.62,NaN,,0,89.90968,,17-Aug,21303,2018-04-26 00:49:36:895,,,
-8.7615,2.4918,7.1826,-5.2916,1.6122,8.1016,-0.0169,-1.1246,1.1118,1.7068,-0.8766,-2.1586,9.508,10.41,12.42,-44.27,39.86,-9.46,33.15,2,1006.14,52.194,30.453468,-84.31873,95.62,NaN,,0,89.90968,,17-Aug,21404,2018-04-26 00:49:36:996,,,
-5.1899,1.4768,6.2326,-5.1154,2.2401,8.0654,-0.4046,0.5066,2.1668,2.0512,-0.6351,-2.1634,9.508,7.69,7.82,-45.81,48.42,-10.82,32.51,2,1006.14,49.344,30.453468,-84.31873,95.62,NaN,,0,89.90968,,17-Aug,21504,2018-04-26 00:49:37:096,,,
-4.821,1.8838,6.0203,-4.9814,2.1682,8.1683,2.9262,0.4979,0.2301,1.0807,-0.8322,-1.7177,9.508,2.29,0.69,-47.35,63.57,-14.52,31.33,2,1006.13,49.344,30.453468,-84.31873,95.62,NaN,,0,89.90968,,0 / 17,21603,2018-04-26 00:49:37:195,,,
-7.9283,1.879,8.5043,-4.9153,1.6619,8.3255,2.115,-0.4728,-1.133,-0.759,-0.7104,-0.108,9.508,0.97,1.42,-47.41,71.01,-9.75,30.56,2,1006.13,49.344,30.453468,-84.31873,95.62,NaN,,0,89.90968,,0 / 17,21704,2018-04-26 00:49:37:296,,,
-5.4024,1.9283,11.2259,-4.017,1.0187,8.8917,1.2075,-0.6206,-2.5664,-0.5961,-0.8947,-0.0783,9.508,-0.94,2.95,-47.71,69.78,-7.37,27.15,2,1006.13,35.336,30.453468,-84.31873,95.62,NaN,,0,89.90968,,0 / 17,21804,2018-04-26 00:49:37:396,,,
-5.3821,-0.0667,8.1025,-4.4301,0.9875,8.6969,-0.6809,1.2789,2.3954,0.5416,1.0123,-0.4166,25.355,-2.56,2.4,-46.43,75.76,-5.78,26.99,2,1006.13,35.336,30.453468,-84.31873,95.62,NaN,,0,89.90968,,0 / 17,21904,2018-04-26 00:49:37:496,,,
-3.6607,0.0453,6.3765,-4.4009,1.6524,8.6103,-3.4247,-0.1085,0.6387,0.312,-0.1128,0.6588,25.355,-0.57,0.27,-47.01,72.62,-9.7,27.07,2,1006.13,35.336,30.453468,-84.31873,95.62,NaN,,0,89.90968,,0 / 17,22004,2018-04-26 00:49:37:596,,,
-2.4634,1.2625,7.4081,-4.413,2.7483,8.3191,-2.0044,0.7215,2.3492,1.5689,-0.0812,-0.7764,25.355,-0.91,-6.75,-45.34,78.96,-16.27,27.94,2,1006.13,35.336,30.453468,-84.31873,95.62,NaN,,0,89.90968,,0 / 17,22103,2018-04-26 00:49:37:695,,,
-3.0388,2.3052,5.5849,-4.2531,2.5533,8.4633,2.6185,0.3971,-2.0629,-0.8736,-1.0684,-0.0859,25.355,-2.39,-9.28,-45.94,83.92,-16.27,27.94,2,1006.13,34.641,30.453468,-84.31873,95.62,NaN,,0,89.90968,,0 / 17,22204,2018-04-26 00:49:37:796,,,
-4.6073,2.9397,12.8703,-4.1184,1.9162,8.695,0.3415,-0.6866,-2.5987,-0.5524,0.3934,-0.0261,25.355,-4.09,-5.61,-46.14,83.24,-12.19,24.09,2,1006.13,34.641,30.453468,-84.31873,95.62,NaN,,0,89.90968,,0 / 17,22304,2018-04-26 00:49:37:896,,,
-4.4355,2.5171,11.3422,-3.9848,1.8727,8.7664,0.0766,0.0678,-0.6031,0.1798,-0.2694,-0.4693,25.355,-4.44,-5.71,-44.97,85.85,-11.01,24.44,2,1006.14,34.641,30.453468,-84.31873,95.62,NaN,,0,89.90968,,0 / 17,22404,2018-04-26 00:49:37:996,,,
-4.2325,1.4588,8.2944,-3.2802,1.7493,9.0784,0.0237,0.1989,0.5823,-0.0511,-0.9726,-0.2883,25.355,-6.88,-5.54,-44.76,86.95,-10.65,22.74,2,1006.13,38.56,30.453468,-84.31873,95.62,NaN,,0,89.90968,,0 / 17,22504,2018-04-26 00:49:38:096,,,
-1.635,2.0078,6.4761,-3.2695,2.1806,8.9884,-0.2863,0.168,2.9142,0.548,0.2223,-0.1163,25.355,-7.51,-8.12,-44.67,89.4,-11.98,21.56,2,1006.13,38.56,30.453468,-84.31873,95.62,NaN,,0,89.90968,,0 / 17,22604,2018-04-26 00:49:38:196,,,
-2.9851,1.891,5.5837,-2.5285,1.9014,9.2859,1.1418,-1.1498,-1.9202,-0.4267,-1.0629,0.5058,25.355,-10.71,-6.63,-44.85,87.48,-11.18,15.23,2,1006.14,38.56,30.453468,-84.31873,95.62,NaN,,0,89.90968,,0 / 17,22704,2018-04-26 00:49:38:296,,,
-3.1546,2.4352,10.1476,-2.6065,2.2651,9.1822,-0.1619,-0.5513,0.3034,0.6164,0.4208,-0.1034,25.355,-10.91,-8.12,-43.87,86.72,-13.35,15.85,2,1006.14,33.349,30.453468,-84.31873,95.62,NaN,,0,89.90968,,0 / 17,22804,2018-04-26 00:49:38:396,,,
-2.7046,3.2864,9.1892,-2.1364,2.0158,9.3599,-0.5908,0.0184,-1.7219,-0.2876,-0.7068,0.7008,25.355,-12.48,-6.7,-44.17,86.23,-11.86,12.86,2,1006.14,33.349,30.453468,-84.31873,95.62,NaN,,0,89.90968,,0 / 17,22904,2018-04-26 00:49:38:496,,,
-1.4726,1.3829,9.3631,-1.8044,2.2688,9.3719,0.2838,0.8641,0.9447,0.2747,-0.2441,0.0075,25.355,-15.48,-5.86,-42.88,83.67,-12.23,10.53,2,1006.14,33.349,30.453468,-84.31873,95.62,NaN,,0,89.90968,,0 / 17,23004,2018-04-26 00:49:38:596,,,
-2.1363,1.3336,8.7118,-2.0429,2.3166,9.3111,-0.8881,0.846,0.903,-0.0098,0.2886,0.0104,25.355,-14.22,-7.34,-43.91,83.49,-13.66,12.37,2,1006.14,34.306,30.453468,-84.31873,95.62,NaN,,0,89.90968,,0 / 17,23104,2018-04-26 00:49:38:696,,,
-2.2151,2.4761,9.3032,-1.4975,2.2964,9.4192,0.9059,-0.0421,-0.1204,-0.0886,-0.673,0.2654,25.355,-14.87,-6.43,-44.31,81.74,-13.39,11.75,2,1006.13,34.306,30.453468,-84.31873,95.62,NaN,,0,89.90968,,0 / 17,23204,2018-04-26 00:49:38:796,,,
-2.9803,2.4051,9.3979,-0.9206,2.6324,9.4053,1.0643,0.6277,-0.4356,0.3714,-0.3907,0.5666,25.355,-17.49,-6.12,-42.41,80.49,-14.36,8.56,2,1006.13,34.306,30.453468,-84.31873,95.62,NaN,,0,89.90968,,0 / 17,23304,2018-04-26 00:49:38:896,,,
-2.5852,2.0535,9.7074,-0.555,2.8321,9.3759,2.2075,0.7493,0.2117,-0.0015,-0.0834,-0.0853,15.847,-20.45,-6.77,-40.64,77.97,-16.78,3.39,2,1006.12,34.306,30.453468,-84.31873,95.62,NaN,,0,89.90968,,0 / 17,23404,2018-04-26 00:49:38:996,,,
-2.7989,1.0013,9.6786,-0.9164,1.9622,9.568,0.7505,1.2256,-0.2884,-1.1184,0.41,0.0678,15.847,-19.74,-6.23,-41.07,81.6,-13.81,5.18,2,1006.12,36.762,30.453468,-84.31873,95.62,NaN,,0,89.90968,,0 / 17,23503,2018-04-26 00:49:39:095,,,
-2.1793,0.693,8.6279,-1.0236,1.8896,9.5717,0.8325,1.2786,1.9914,-0.0809,0.1423,-0.1051,15.847,-19.5,-3.26,-42.27,78.6,-11.11,6.1,2,1006.12,36.762,30.453468,-84.31873,95.62,NaN,,0,89.90968,,0 / 17,23604,2018-04-26 00:49:39:196,,,
-1.8069,0.7256,7.6947,-0.8076,1.3162,9.6877,2.3414,2.4761,1.8691,-0.4783,-0.1679,0.0836,15.847,-18.45,-3.32,-42,79.16,-10.47,6.16,2,1006.12,36.762,30.453468,-84.31873,95.62,NaN,,0,89.90968,,0 / 17,23703,2018-04-26 00:49:39:295,,,
-3.1212,-1.2959,7.9742,0.205,1.8565,9.6306,4.9074,8.0386,-13.5187,-0.0818,-0.3813,0.9079,15.847,-21.06,2.52,-40.58,78.95,-2.33,3.7,2,1006.12,35.29,30.453468,-84.31873,95.62,NaN,,0,89.90968,,0 / 17,23803,2018-04-26 00:49:39:395,,,
0.3956,1.9103,11.4933,-0.0367,1.9765,9.6087,0.9326,1.5324,2.4251,-0.3991,0.2288,0.2693,15.847,-22.54,-1.82,-39.74,75.28,-11.62,0.22,2,1006.13,35.29,30.453468,-84.31873,95.62,NaN,,0,89.90968,,0 / 17,23903,2018-04-26 00:49:39:495,,,
-0.6179,0.9796,7.5028,0.117,2.1643,9.5676,-0.5492,-1.2675,-1.0245,0.3982,-0.1051,1.4752,15.847,-23.66,0.08,-39.61,71.46,-11.16,-0.97,2,1006.14,35.29,30.453468,-84.31873,95.62,NaN,,0,89.90968,,0 / 17,24003,2018-04-26 00:49:39:595,,,
-0.409,0.2054,10.0588,-0.1821,2.1911,9.5604,0.1465,-2.9242,-1.8207,-0.0126,0.1617,0.0898,13.734,-22.12,-1.21,-40.54,70.45,-12.91,1.09,2,1006.14,46.758,30.453468,-84.31873,95.62,NaN,,0,89.90968,,0 / 17,24104,2018-04-26 00:49:39:696,,,
-0.7803,4.6601,11.2115,-2.0073,1.6275,9.4635,0.3707,-4.7176,-1.5755,-0.5544,1.539,-1.1068,13.734,-15.79,-0.87,-43.63,77.26,-9.55,11.98,2,1006.14,46.758,30.453468,-84.31873,95.62,NaN,,0,89.90968,,0 / 17,24204,2018-04-26 00:49:39:796,,,
-2.2629,5.3006,8.2417,-5.7593,1.3615,7.8239,-3.7499,-1.5589,0.9675,-0.2621,2.938,-0.6062,13.734,-9.9,0.29,-44.83,79.08,-6.86,19.22,2,1006.14,46.758,30.453468,-84.31873,95.62,NaN,,0,89.90968,,0 / 17,24303,2018-04-26 00:49:39:895,,,
-0.2526,1.9151,7.6407,-8.0988,3.2846,4.4561,-5.4582,1.7421,2.4359,1.6365,6.7072,0.852,13.734,16.64,-6.38,-42.92,88.72,-7.98,36.36,2,1006.13,46.758,30.453468,-84.31873,95.62,NaN,,0,89.90968,,0 / 17,24404,2018-04-26 00:49:39:996,,,
-0.2526,1.9151,7.6407,-8.0988,3.2846,4.4561,-5.4582,1.7421,2.4359,1.6365,6.7072,0.852,13.734,16.64,-6.38,-42.92,88.72,-7.98,36.36,2,1006.13,46.758,30.453468,-84.31873,95.62,NaN,,0,89.90968,,0 / 17,24504,2018-04-26 00:49:40:096,,,
-14.2276,8.378,2.0202,-5.2865,8.0097,2.033,8.5579,1.5465,3.5992,-1.3583,0.9413,3.0866,13.734,22.55,-28.3,-28.33,104.69,-35.8,75.67,2,1006.14,35.263,30.453468,-84.31873,95.62,NaN,,0,89.90968,,0 / 17,24603,2018-04-26 00:49:40:195,,,
-7.8459,3.7006,-10.3905,-4.7906,8.4508,1.3678,-0.5,0.0063,1.4589,0.8191,1.425,0.5294,13.734,19.29,-27.47,-32.51,64.47,-54.33,63.45,0,1006.14,35.263,30.453468,-84.31873,95.62,NaN,,0,89.90968,,0 / 17,24704,2018-04-26 00:49:40:296,,,
-4.2791,8.3443,0.2894,-4.7005,8.4887,1.4436,-1.2369,1.9228,3.0357,-0.9434,0.8057,-0.7221,7.395,18.14,-30.87,-30.46,73.4,-59.92,72.93,0,1006.14,35.263,30.453468,-84.31873,95.62,NaN,,0,89.90968,,0 / 17,24803,2018-04-26 00:49:40:395,,,
-4.7124,7.2655,3.4787,-5.0906,8.2729,1.3714,-0.5811,0.9186,-1.5616,0.3501,0.1313,0.0795,7.395,21.24,-29.38,-30.73,71.23,-57.49,74.92,0,1006.14,56.572,30.453468,-84.31873,95.62,NaN,,0,89.90968,,0 / 17,24903,2018-04-26 00:49:40:495,,,
-5.2376,6.3409,1.6147,-5.0127,8.4141,0.5587,0.1105,0.2317,-0.1159,0.5623,0.419,0.0576,7.395,21.22,-29.87,-28.45,74.97,-57.93,78.49,0,1006.13,56.572,30.453468,-84.31873,95.62,NaN,,0,89.90968,,0 / 17,25004,2018-04-26 00:49:40:596,,,
-3.0698,11.1279,-1.5254,-4.7077,8.6057,0.1205,1.3149,-0.5018,2.9075,0.6709,-0.3669,0.2614,7.395,21.27,-33.65,-25.78,83.99,-61.31,88.53,0,1006.13,56.572,30.453468,-84.31873,95.62,NaN,,0,89.90968,,0 / 17,25103,2018-04-26 00:49:40:695,,,
-5.7402,8.8668,-0.2408,-4.3652,8.7836,-0.1691,2.4183,-2.6833,-2.996,0.6597,-0.3441,0.2789,7.395,19.66,-35.99,-24.28,89.3,-61.71,90.68,0,1006.15,60.125,30.453468,-84.31873,95.62,NaN,,0,89.90968,,0 / 17,25203,2018-04-26 00:49:40:795,,,
-7.0211,11.0725,1.6951,-3.9815,8.9593,-0.338,-2.1359,0.5521,-0.3099,0.2545,0.3181,0.2296,7.395,16.2,-37.38,-22.64,95.38,-65.96,94.85,0,1006.17,60.125,30.453468,-84.31873,95.62,NaN,,0,89.90968,,0 / 17,25304,2018-04-26 00:49:40:896,,,
-3.8446,9.2304,-0.7697,-3.8797,9.0041,-0.3315,0.813,2.1275,1.4391,-0.3475,1.521,0.0273,7.395,17.94,-37.87,-22.82,95.72,-65.84,98.86,0,1006.17,60.125,30.453468,-84.31873,95.62,NaN,,0,89.90968,,0 / 17,25403,2018-04-26 00:49:40:995,,,
-3.8446,6.9043,-2.1467,-3.998,8.9477,-0.4369,1.7428,-2.0196,-0.1033,0.0623,-0.0379,-0.11,2.113,18.26,-37,-23.92,92.72,-65.8,96.24,0,1006.12,58.013,30.453468,-84.31873,95.62,NaN,,0,89.90968,,0 / 17,25504,2018-04-26 00:49:41:096,,,
-6.0923,10.5259,0.0687,-3.8666,8.9983,-0.5626,0.6352,-0.5221,0.5775,0.1407,0.4126,-0.8825,2.113,18.24,-36.7,-23.71,93.41,-66.53,98.28,0,1006.1,58.013,30.453468,-84.31873,95.62,NaN,,0,89.90968,,0 / 17,25603,2018-04-26 00:49:41:195,,,
-6.6713,9.0956,-0.6138,-4.7727,8.568,-0.2165,-4.7517,3.2467,0.6822,-0.3022,-0.6947,-0.9425,2.113,20.96,-35.51,-23.28,92.53,-60.96,95.42,0,1006.1,58.013,30.453468,-84.31873,95.62,NaN,,0,89.90968,,0 / 17,25704,2018-04-26 00:49:41:296,,,
0.2666,6.7418,1.033,-4.0999,8.9115,-0.1124,2.5136,-1.0446,-1.4237,-0.2021,-1.4075,1.378,2.113,18.54,-35.69,-23.68,86.26,-65.29,91.57,0,1006.1,58.013,30.453468,-84.31873,95.62,NaN,,0,89.90968,,0 / 17,25803,2018-04-26 00:49:41:395,,,
-12.0132,12.1139,-1.5998,-3.3341,9.2045,-0.6292,1.5742,-0.9192,0.412,1.0915,-0.1104,0.4608,2.113,13.45,-38.87,-23.49,102.41,-69.76,100.69,0,1006.15,59.265,30.453468,-84.31873,95.62,NaN,,0,89.90968,,0 / 17,25904,2018-04-26 00:49:41:496,,,
-4.1693,8.1625,-0.3547,-3.4763,9.1172,-1.0142,0.5418,-0.4457,0.4982,0.1488,0.3664,-0.0428,2.113,13.65,-40.3,-20.36,107.93,-68.34,106.26,0,1006.13,59.265,30.453468,-84.31873,95.62,NaN,,0,89.90968,,0 / 17,26004,2018-04-26 00:49:41:596,,,
-3.9627,9.9648,-1.1824,-3.1967,9.2315,-0.8926,-0.6471,-1.2256,-0.0988,-0.169,0.3404,-0.0344,2.113,13.38,-40.33,-21.33,109.1,-69.04,106.54,0,1006.13,59.265,30.453468,-84.31873,95.62,NaN,,0,89.90968,,0 / 17,26103,2018-04-26 00:49:41:695,,,
-3.1809,10.3031,-0.5694,-3.5365,9.0962,-0.9946,0.2139,0.4239,-0.4353,-0.0233,0.2878,-0.4276,1.183,14.83,-39.69,-20.88,103.46,-69.17,105.06,0,1006.15,63.986,30.453468,-84.31873,95.62,NaN,,0,89.90968,,0 / 17,26203,2018-04-26 00:49:41:795,,,
-3.6106,8.8716,-0.4111,-3.6072,9.0291,-1.3033,2.5955,-2.1196,1.7904,0.3088,0.1272,0.0708,1.183,16.6,-39.44,-18.96,105.31,-66.98,109.87,0,1006.15,63.986,30.453468,-84.31873,95.62,NaN,,0,89.90968,,0 / 17,26304,2018-04-26 00:49:41:896,,,
-3.2596,6.6611,0.1946,-3.3922,9.1192,-1.2524,-0.251,-0.5907,0.6902,-0.0308,-0.2393,0.2743,1.183,15.36,-40.08,-20.42,108.69,-68.37,110.26,0,1006.36,63.986,30.453468,-84.31873,95.62,NaN,,0,89.90968,,0 / 17,26404,2018-04-26 00:49:41:996,,,
-3.3957,8.9198,-1.1032,-3.3644,9.1333,-1.2246,0.2798,0.1664,0.1378,0.0916,-0.404,0.1167,1.183,14.69,-40.26,-20.03,108.15,-68.59,110,0,1006.32,59.428,30.453468,-84.31873,95.62,NaN,,0,89.90968,,0 / 17,26503,2018-04-26 00:49:42:095,,,
-3.5378,8.7464,-0.9809,-3.2935,9.1667,-1.1663,1.1044,0.907,-0.5233,0.0929,-0.4243,0.1238,1.183,12.99,-40.58,-20.22,112.04,-69.14,109.5,0,1006.32,59.428,30.453468,-84.31873,95.62,NaN,,0,89.90968,,0 / 17,26603,2018-04-26 00:49:42:195,,,
-4.821,7.9999,-0.6222,-3.0226,9.2427,-1.2931,2.6871,0.4593,0.2883,0.1776,-0.0769,0.3295,1.183,11.46,-40.82,-19.69,116.9,-69.51,111.08,0,1006.31,59.428,30.453468,-84.31873,95.62,NaN,,0,89.90968,,0 / 17,26704,2018-04-26 00:49:42:296,,,
-3.0209,9.4206,-2.6936,-3.0323,9.2484,-1.2279,0.6809,1.0892,0.2752,-0.0049,-0.5553,-0.1049,1.183,11.26,-41.72,-19.92,117.77,-70.42,113.16,0,1006.39,42.548,30.453468,-84.31873,95.62,NaN,,0,89.90968,,0 / 17,26803,2018-04-26 00:49:42:395,,,
-4.8234,7.9722,-1.0876,-3.2307,9.2054,-1.0297,2.1688,1.6046,1.1285,-0.0745,-0.3049,-0.1402,1.183,10.74,-41.53,-20.74,115.66,-69.93,109.55,0,1006.39,42.548,30.453468,-84.31873,95.62,NaN,,0,89.90968,,0 / 17,26903,2018-04-26 00:49:42:495,,,
-5.3606,7.9108,-1.5506,-3.1107,9.253,-0.9707,2.1098,1.2448,0.5175,-0.2393,0.3524,0.3012,1.183,10.31,-41.04,-21.81,114.24,-70.6,107.33,0,1006.39,42.548,30.453468,-84.31873,95.62,NaN,,0,89.90968,,0 / 17,27004,2018-04-26 00:49:42:596,,,
-5.8428,9.0715,-1.5122,-2.686,9.4015,-0.796,2.6875,0.0859,1.6592,-0.3004,0.4042,0.3478,1.183,9.76,-40.24,-21.75,108.96,-73.41,106.51,0,1006.42,51.621,30.453468,-84.31873,95.62,NaN,,0,89.90968,,0 / 17,27104,2018-04-26 00:49:42:696,,,
-5.3224,9.1991,-2.4406,-2.5706,9.4286,-0.8539,0.5539,-2.5312,-0.5669,-0.0559,0.4174,0.1535,1.183,8.95,-40.35,-22.07,109.29,-74.81,106.74,0,1006.42,51.621,30.453468,-84.31873,95.62,NaN,,0,89.90968,,0 / 17,27203,2018-04-26 00:49:42:795,,,
-0.3422,10.1864,1.2609,-3.0424,9.2233,-1.3826,-0.1377,-3.7458,1.284,1.1226,0.7471,-0.91,1.183,12.77,-40.27,-19.35,113.56,-70.08,114.44,0,1006.12,51.621,30.453468,-84.31873,95.62,NaN,,0,89.90968,,0 / 17,27304,2018-04-26 00:49:42:896,,,
-2.7428,13.3648,-3.1207,-3.7612,8.6476,-2.7035,-0.5158,0.3118,-0.6711,0.9874,0.3799,-0.7363,1.183,17.5,-41.08,-14.59,114.86,-65.54,121.99,0,1006.01,52.353,30.453468,-84.31873,95.62,NaN,,0,89.90968,,0 / 17,27404,2018-04-26 00:49:42:996,,,
-2.4873,7.2222,-2.2559,-3.9325,8.4094,-3.1706,-0.8355,2.3563,-0.2253,0.6232,0.5833,-0.3791,1.183,18.95,-41.13,-12.68,119.9,-61.82,125.71,0,1006.01,52.353,30.453468,-84.31873,95.62,NaN,,0,89.90968,,0 / 17,27503,2018-04-26 00:49:43:095,,,
-2.8251,5.3163,-3.1878,-3.9757,8.1807,-3.675,-0.1474,2.8183,1.0959,0.3725,0.1459,-0.0498,1.183,21,-41.02,-9.47,124.69,-56.98,132.25,0,1006.03,52.353,30.453468,-84.31873,95.62,NaN,,0,89.90968,,0 / 17,27604,2018-04-26 00:49:43:196,,,
-5.2424,8.2311,-4.7231,-4.0024,8.1977,-3.6075,1.3725,-0.6674,1.59,-0.171,0.0923,0.0229,2.113,21.04,-41.2,-8.4,124.91,-56.68,132.03,0,1006.03,51.361,30.453468,-84.31873,95.62,NaN,,0,89.90968,,0 / 17,27704,2018-04-26 00:49:43:296,,,
-4.8891,9.0474,-6.1768,-3.9163,8.1402,-3.8256,0.4277,-5.1964,2.0063,0.4205,0.4913,-0.047,2.113,21.38,-40.19,-7.91,125.4,-56.08,134.33,0,1006.11,51.361,30.453468,-84.31873,95.62,NaN,,0,89.90968,,0 / 17,27804,2018-04-26 00:49:43:396,,,
-0.372,6.0941,-2.0316,-3.8934,8.1212,-3.889,-1.4782,2.1777,-1.9423,0.4494,-0.7318,0.4182,2.113,20.65,-42.25,-8.23,127.55,-56.19,135.19,0,1006.14,51.361,30.453468,-84.31873,95.62,NaN,,0,89.90968,,0 / 17,27904,2018-04-26 00:49:43:496,,,
-7.4138,7.8916,-2.1407,-3.6678,8.4611,-3.3456,-2.5786,0.9532,-0.2126,-0.4686,-0.7922,0.8678,2.113,19.46,-41.5,-10.17,126.53,-59.6,132.37,0,1006.15,51.361,30.453468,-84.31873,95.62,NaN,,0,89.90968,,0 / 17,28003,2018-04-26 00:49:43:595,,,
-0.6693,8.0481,-2.8268,-3.5458,8.7715,-2.5932,0.9404,0.4502,-1.6514,-0.2678,-1.0135,0.2965,2.113,15.75,-41.94,-13.16,125.31,-63.4,126.18,0,1006.15,55.277,30.453468,-84.31873,95.62,NaN,,0,89.90968,,0 / 17,28104,2018-04-26 00:49:43:696,,,
-4.7888,7.2354,-2.2439,-3.2527,8.9686,-2.2848,1.1553,1.1733,0.68,-0.5235,0.0285,0.6405,2.113,12.97,-41.66,-16.22,127.36,-66.1,125.09,0,1006.33,55.277,30.453468,-84.31873,95.62,NaN,,0,89.90968,,0 / 17,28203,2018-04-26 00:49:43:795,,,
-4.3113,7.9686,-2.8796,-2.7067,9.2527,-1.8161,1.6177,-0.5197,0.0839,-0.404,0.0872,0.455,2.113,11.58,-42.02,-18.09,125.67,-68.66,124.38,0,1006.33,55.277,30.453468,-84.31873,95.62,NaN,,0,89.90968,,0 / 17,28304,2018-04-26 00:49:43:896,,,
-2.5971,12.2873,-0.4051,-3.175,9.1009,-1.8247,-3.0906,-1.2506,-1.5757,0.0825,-0.0148,-0.441,2.113,11.72,-42.02,-18.39,120.2,-71.33,121.28,0,1006.34,53.958,30.453468,-84.31873,95.62,NaN,,0,89.90968,,0 / 17,28404,2018-04-26 00:49:43:996,,,
-0.2777,10.2875,0.3901,-3.5952,8.8452,-2.2523,-1.6928,-4.8914,0.452,0.997,-0.517,-0.4607,2.113,15.23,-41.42,-15.15,123.05,-64.38,122.07,0,1006.04,53.958,30.453468,-84.31873,95.62,NaN,,0,89.90968,,0 / 17,28503,2018-04-26 00:49:44:095,,,
-4.8389,7.5256,-2.0196,-3.9236,8.4547,-3.0592,-1.3739,1.6908,-0.6631,0.7446,0.1401,-0.3618,2.113,16.04,-42.21,-12.8,127.42,-61.28,124.76,0,1005.99,53.958,30.453468,-84.31873,95.62,NaN,,0,89.90968,,0 / 17,28604,2018-04-26 00:49:44:196,,,
-2.0946,6.4191,-2.3842,-3.8556,8.4026,-3.2812,-1.2665,2.0903,0.2414,0.2262,0.1665,-0.0343,2.113,17.28,-41.74,-10.78,130.72,-58.93,130.4,0,1005.99,54.099,30.453468,-84.31873,95.62,NaN,,0,89.90968,,0 / 17,28703,2018-04-26 00:49:44:295,,,
-3.4841,7.9181,-2.4394,-3.8726,8.4119,-3.2371,-0.0661,0.1618,-0.608,-0.0345,-0.2715,0.0264,2.113,17.64,-42.31,-11.35,128.36,-59.04,129.89,0,1006.06,54.099,30.453468,-84.31873,95.62,NaN,,0,89.90968,,0 / 17,28804,2018-04-26 00:49:44:396,,,
-3.0722,8.3106,-4.7303,-4.4324,8.2512,-2.9167,0.0592,0.3604,1.8668,0.1603,-0.9252,-0.1813,2.113,16.2,-42.52,-13.63,131.53,-57.97,124.02,0,1006.06,54.099,30.453468,-84.31873,95.62,NaN,,0,89.90968,,0 / 17,28904,2018-04-26 00:49:44:496,,,
-4.2624,8.2419,-4.4736,-4.791,8.0075,-3.027,-1.4887,-10.8132,1.7454,0.5936,-0.5219,-0.2839,2.113,16.43,-41.9,-11.05,132.64,-57.26,123.35,0,1006.04,59.995,30.453468,-84.31873,95.62,NaN,,0,89.90968,,0 / 17,29003,2018-04-26 00:49:44:595,,,
-4.8234,11.4481,0.1418,-5.1087,7.7385,-3.2022,-3.7653,-3.1523,-2.8087,1.186,-1.16,0.1561,1.23,15.97,-42.65,-10.42,138.26,-53.43,122.34,0,1006.38,59.995,30.453468,-84.31873,95.62,NaN,,0,89.90968,,0 / 17,29104,2018-04-26 00:49:44:696,,,
-1.4129,7.8868,-1.9656,-4.3577,8.1707,-3.2382,-15.0378,6.4451,3.6122,-0.2989,-0.9792,1.6539,1.23,11.47,-45.2,-9.69,147.06,-56.4,126.62,0,1006.38,59.995,30.453468,-84.31873,95.62,NaN,,0,89.90968,,0 / 17,29203,2018-04-26 00:49:44:795,,,
-7.2347,3.8125,-2.0483,-4.1113,8.5997,-2.3193,0.5651,2.3303,-2.0345,-0.3096,-0.973,0.4338,1.23,7.66,-45.43,-9.15,151.96,-58.1,123.88,0,1006.27,69.557,30.453468,-84.31873,95.62,NaN,,0,89.90968,,0 / 17,29304,2018-04-26 00:49:44:896,,,
-4.7148,7.357,-2.4442,-3.793,8.8022,-2.0905,1.6834,0.7367,-0.0338,-0.5411,0.2028,0.563,1.23,5.59,-44.65,-13.41,145.5,-63.8,118.86,0,1006.27,69.557,30.453468,-84.31873,95.62,NaN,,0,89.90968,,0 / 17,29403,2018-04-26 00:49:44:995,,,
-6.0195,8.1914,-2.3266,-3.205,9.097,-1.7913,2.6696,0.743,0.6186,-0.552,0.9294,0.4128,1.23,3.69,-44.08,-15.21,143.07,-68.02,119.2,0,1006.27,69.557,30.453468,-84.31873,95.62,NaN,,0,89.90968,,0 / 17,29503,2018-04-26 00:49:45:095,,,
-4.8759,8.7921,-2.449,-2.881,9.2448,-1.5714,-0.1172,-2.4088,-0.2756,-0.3951,0.4994,0.2527,1.23,3.14,-43.39,-18.42,139.28,-70.46,118.61,0,1006.34,69.557,30.453468,-84.31873,95.62,NaN,,0,89.90968,,17-Aug,29603,2018-04-26 00:49:45:195,,,
-0.982,9.2701,0.6264,-3.457,9.0003,-1.8111,-1.7773,-4.3552,0.8714,0.5786,0.6977,-1.1674,1.23,4.49,-42.96,-17.57,140.4,-66.56,117.65,0,1006.34,51.632,30.453468,-84.31873,95.62,NaN,,0,89.90968,,17-Aug,29704,2018-04-26 00:49:45:296,,,
-2.1936,13.8922,-3.1482,-4.1821,8.4353,-2.7553,-0.7731,1.1219,-0.581,0.7223,0.3168,-0.7715,1.23,11.12,-44.15,-14.16,136.16,-62.47,121.11,0,1005.99,51.632,30.453468,-84.31873,95.62,NaN,,0,89.90968,,17-Aug,29804,2018-04-26 00:49:45:396,,,
-1.8128,7.3414,-2.3758,-4.2073,8.2888,-3.1355,-3.1418,0.9228,-0.5089,0.2158,1.2668,-0.5844,1.23,14.67,-43.61,-10.57,136.78,-57.66,126.7,0,1005.94,51.632,30.453468,-84.31873,95.62,NaN,,0,89.90968,,17-Aug,29904,2018-04-26 00:49:45:496,,,
-9.3094,7.097,-10.9062,-4.4748,8.1143,-3.2204,-3.6577,2.0454,-1.112,0.0358,-0.2616,-0.1774,1.23,15.15,-43.31,-11.62,137.86,-55.85,128.98,0,1005.98,66.2,30.453468,-84.31873,95.62,NaN,,0,89.90968,,17-Aug,30004,2018-04-26 00:49:45:596,,,
-9.3094,7.097,-10.9062,-4.4748,8.1143,-3.2204,-3.6577,2.0454,-1.112,0.0876,-1.1137,0.2416,1.23,14.74,-44.22,-10.73,138.47,-55.81,125.74,0,1005.98,66.2,30.453468,-84.31873,95.62,NaN,,0,89.90968,,17-Aug,30103,2018-04-26 00:49:45:695,,,
-9.3094,7.097,-10.9062,-4.4748,8.1143,-3.2204,-3.6577,2.0454,-1.112,0.0876,-1.1137,0.2416,1.23,14.74,-44.22,-10.73,138.47,-55.81,125.74,0,1005.98,66.2,30.453468,-84.31873,95.62,NaN,,0,89.90968,,17-Aug,30204,2018-04-26 00:49:45:796,,,
-1.1097,6.5155,-2.1659,-4.3156,8.1918,-3.2413,-1.3305,-3.7415,-0.88,0.5863,-1.4552,0.9456,1.23,6.95,-45.95,-5.81,159.16,-56.62,126.91,0,1006.06,46.772,30.453468,-84.31873,95.62,NaN,,0,89.90968,,17-Aug,30303,2018-04-26 00:49:45:895,,,
-4.1633,9.7445,0.4765,-4.5506,8.121,-3.0947,0.4912,-0.0083,-2.1012,1.2215,-2.6049,0.6078,1.23,3.82,-46.99,-4.46,167.7,-55.88,124.22,0,1006.15,46.772,30.453468,-84.31873,95.62,NaN,,0,89.90968,,17-Aug,30403,2018-04-26 00:49:45:995,,,
-5.0383,7.8374,-0.9521,-4.5294,8.1905,-2.9387,-0.0567,0.2131,-1.7537,1.1504,-2.2433,0.9416,1.23,-1.21,-47.5,1.67,184.88,-56.08,122.37,0,1006.21,46.772,30.453468,-84.31873,95.62,NaN,,0,89.90968,,17-Aug,30504,2018-04-26 00:49:46:096,,,
-5.5158,7.0898,-1.0156,-4.3387,8.2706,-3.0014,0.5916,-0.9479,-0.7112,0.746,-1.2934,0.6844,1.23,-3.15,-46.67,8.08,199.08,-56.88,123.58,0,1006.16,46.772,30.453468,-84.31873,95.62,NaN,,0,89.90968,,0 / 17,30603,2018-04-26 00:49:46:195,,,
-4.0081,9.8661,-1.8037,-4.2465,8.2977,-3.0582,-1.872,-0.4037,0.468,0.9844,-1.7283,0.8916,1.23,-4.87,-45.58,9,203.22,-57.47,124.67,0,1006.16,54.45,30.453468,-84.31873,95.62,NaN,,0,89.90968,,0 / 17,30704,2018-04-26 00:49:46:296,,,
-3.3384,7.9975,-3.8163,-3.7668,8.5202,-3.0746,0.081,0.1763,0.8512,0.7599,-1.6947,1.0699,1.23,-7.12,-44.18,15.88,221.35,-58.79,127.23,0,1006.14,54.45,30.453468,-84.31873,95.62,NaN,,0,89.90968,,0 / 17,30804,2018-04-26 00:49:46:396,,,
-3.9472,8.183,-3.8379,-3.4832,8.6472,-3.0544,-0.2455,0.6873,0.9929,0.291,-1.0149,0.7682,1.23,-10.04,-42.29,18.68,233.55,-61.82,131.25,0,1006.14,54.45,30.453468,-84.31873,95.62,NaN,,0,89.90968,,0 / 17,30904,2018-04-26 00:49:46:496,,,
-3.2859,7.8362,-4.163,-3.1762,8.8197,-2.8916,-0.1264,0.9157,1.4394,0.1356,-0.7878,0.5238,1.23,-10.17,-40.87,20.6,241.89,-64.03,132.31,0,1006.09,45.205,30.453468,-84.31873,95.62,NaN,,0,89.90968,,0 / 17,31004,2018-04-26 00:49:46:596,,,
-2.6043,7.9482,-4.1054,-3.0355,8.9205,-2.7289,-1.6126,0.3386,1.2982,-0.1559,-0.743,0.5178,1.23,-10.47,-40.82,21.72,245.61,-65.41,131.96,0,1006.07,45.205,30.453468,-84.31873,95.62,NaN,,0,89.90968,,0 / 17,31104,2018-04-26 00:49:46:696,,,
-1.1825,8.756,-3.8259,-2.8394,9.0731,-2.4191,-0.5477,-0.2298,1.2594,-0.0689,-0.8028,0.3881,0.852,-11.58,-40.73,22.47,246.15,-67.65,130.43,0,1006.07,45.205,30.453468,-84.31873,95.62,NaN,,0,89.90968,,0 / 17,31204,2018-04-26 00:49:46:796,,,
-2.4933,9.2485,-3.5273,-3.051,8.9408,-2.6437,-0.2726,-0.408,0.7551,0.2907,-0.2799,-0.154,0.852,-9.5,-39.1,22.95,249.98,-66.67,130.43,0,1006.1,54.192,30.453468,-84.31873,95.62,NaN,,0,89.90968,,0 / 17,31304,2018-04-26 00:49:46:896,,,
-1.6887,8.9053,-2.6889,-3.0478,8.9071,-2.7589,-1.2413,0.0491,-0.3612,0.2937,-0.488,0.0748,0.852,-8.39,-39.24,25.32,254.8,-65.22,132.15,0,1006.13,54.192,30.453468,-84.31873,95.62,NaN,,0,89.90968,,0 / 17,31404,2018-04-26 00:49:46:996,,,
-2.2557,9.0474,-1.8061,-3.2879,8.8285,-2.7354,0.3595,-0.6014,-1.4782,0.2995,-0.8846,0.0667,0.852,-7.32,-38.53,25.96,256.72,-64.78,131.75,0,1006.13,54.192,30.453468,-84.31873,95.62,NaN,,0,89.90968,,0 / 17,31503,2018-04-26 00:49:47:095,,,
-4.1048,9.6578,-1.6825,-3.5388,8.7444,-2.6921,1.1607,-0.4492,-0.63,0.547,-1.5193,0.002,0.852,-3.66,-36.55,28.48,259.68,-63.05,127.26,0,1006.17,46.397,30.453468,-84.31873,95.62,NaN,,0,89.90968,,0 / 17,31603,2018-04-26 00:49:47:195,,,
-4.9702,8.939,-1.7785,-3.8737,8.6729,-2.4519,0.4922,0.2515,-0.5287,0.3767,-1.4021,0.114,0.852,0.87,-35.77,29.59,265.64,-62.14,122.33,0,1006.18,46.397,30.453468,-84.31873,95.62,NaN,,0,89.90968,,0 / 17,31705,2018-04-26 00:49:47:297,,,
-3.6739,8.6224,-2.3626,-3.9333,8.715,-2.1941,-0.0102,0.1031,0.1986,0.1852,-0.9233,0.1657,0.852,1.82,-35.45,29.31,266.12,-62.41,120.53,0,1006.18,46.397,30.453468,-84.31873,95.62,NaN,,0,89.90968,,0 / 17,31804,2018-04-26 00:49:47:396,,,
-4.2731,8.5622,-2.335,-3.8969,8.7582,-2.0845,0.4563,0.2819,0.9767,0.0727,-0.6263,0.2736,2.113,4.66,-35.04,30.09,271.91,-63.22,118.14,0,1006.22,46.397,30.453468,-84.31873,95.62,NaN,,0,89.90968,,0 / 17,31904,2018-04-26 00:49:47:496,,,
-4.3662,8.4526,-2.834,-3.6119,8.9245,-1.8824,0.5134,0.9007,1.1,0.004,-0.472,0.3683,2.113,5.23,-34.64,28.93,271.86,-64.1,117.54,0,1006.21,44.941,30.453468,-84.31873,95.62,NaN,,0,89.90968,,0 / 17,32003,2018-04-26 00:49:47:595,,,
-3.607,8.0084,-2.9515,-3.3357,9.0567,-1.7566,-0.1957,0.5597,1.5205,-0.1034,-0.3873,0.5632,2.113,4.47,-34.98,29.88,276.29,-67.4,117.77,0,1006.21,44.941,30.453468,-84.31873,95.62,NaN,,0,89.90968,,0 / 17,32104,2018-04-26 00:49:47:696,,,
-3.1044,8.3936,-3.171,-3.043,9.2246,-1.3722,0.9459,-0.4306,0.8523,-0.197,-0.4756,0.3464,2.113,4.23,-35.77,28.64,277.19,-69.12,117.53,0,1006.24,44.941,30.453468,-84.31873,95.62,NaN,,0,89.90968,,0 / 17,32205,2018-04-26 00:49:47:797,,,
-4.0618,10.0672,-1.541,-3.3374,9.1862,-0.8433,-1.8695,-0.8086,-1.0953,-0.5565,0.1198,-0.3162,2.113,5.86,-36.75,27.16,271.83,-69.97,108.58,0,1006.24,41.026,30.453468,-84.31873,95.62,NaN,,0,89.90968,,0 / 17,32304,2018-04-26 00:49:47:896,,,
-1.9155,10.0359,0.2642,-3.4709,9.1216,-0.9927,-2.4301,-1.0537,-0.2429,0.6512,-0.404,-0.2762,2.113,6.5,-37.34,27.36,266.82,-68.41,105.96,0,1006.05,41.026,30.453468,-84.31873,95.62,NaN,,0,89.90968,,0 / 17,32404,2018-04-26 00:49:47:996,,,
-3.6142,10.4079,-0.5647,-3.7804,8.8947,-1.6819,0.272,-1.2607,0.2632,0.6923,-0.1693,-0.2716,2.113,8.26,-35.1,28.82,274.86,-66.69,109.81,0,1006,41.026,30.453468,-84.31873,95.62,NaN,,0,89.90968,,0 / 17,32503,2018-04-26 00:49:48:095,,,
-3.9174,9.9901,-1.8037,-3.8522,8.7658,-2.135,-0.7452,0.3979,0.3009,0.5338,0.6114,-0.2618,1.056,8.31,-33.54,30.85,280.76,-63.32,119,0,1006,51.86,30.453468,-84.31873,95.62,NaN,,0,89.90968,,0 / 17,32604,2018-04-26 00:49:48:196,,,
-3.1713,8.2142,-2.7488,-3.9525,8.5193,-2.8347,-0.7766,0.2817,0.514,0.4297,0.4261,-0.205,1.056,7.91,-31.2,33.1,287.48,-60.28,125.65,0,1006,51.86,30.453468,-84.31873,95.62,NaN,,0,89.90968,,0 / 17,32704,2018-04-26 00:49:48:296,,,
-3.3933,7.5352,-3.4577,-4.0036,8.4479,-2.9731,-0.154,1.5725,1.3711,-0.1266,0.3483,-0.1734,1.056,6.39,-30.27,33.81,285,-59.45,126.6,0,1006.06,51.86,30.453468,-84.31873,95.62,NaN,,0,89.90968,,0 / 17,32804,2018-04-26 00:49:48:396,,,
-4.0224,7.9096,-3.7983,-4.0215,8.454,-2.9315,-0.186,-0.0814,1.7984,-0.2919,0.4431,-0.1785,1.056,5.33,-30.81,32.65,280.87,-59.46,126.29,0,1006.06,49.401,30.453468,-84.31873,95.62,NaN,,0,89.90968,,0 / 17,32904,2018-04-26 00:49:48:496,,,
-3.8661,8.6453,-4.6211,-3.8407,8.5669,-2.845,-0.1174,-2.0481,0.1651,-0.3554,0.5845,-0.0236,1.056,3.99,-32.18,32.55,278.11,-59.96,125.75,0,1006.1,49.401,30.453468,-84.31873,95.62,NaN,,0,89.90968,,0 / 17,33004,2018-04-26 00:49:48:596,,,
-3.5724,9.5458,-2.0531,-3.8231,8.5937,-2.7871,-0.4621,-0.7197,-0.4156,-0.3469,0.4535,-0.1319,1.056,2.16,-33.82,31.81,273.55,-61.17,126.09,0,1006.11,49.401,30.453468,-84.31873,95.62,NaN,,0,89.90968,,0 / 17,33104,2018-04-26 00:49:48:696,,,
-3.2775,8.4237,-1.7197,-3.6932,8.73,-2.5266,-0.2402,0.3624,-1.1705,-0.4464,0.4862,-0.0134,1.056,1.38,-34.37,30.66,270.94,-61.81,125.19,0,1006.11,48.414,30.453468,-84.31873,95.62,NaN,,0,89.90968,,0 / 17,33204,2018-04-26 00:49:48:796,,,
-3.336,8.8885,-1.2183,-3.6762,8.7611,-2.4424,0.3746,0.0494,-1.378,-0.2845,0.4891,-0.202,1.056,-0.86,-36.12,28.33,262.6,-63.26,123.6,0,1006.11,48.414,30.453468,-84.31873,95.62,NaN,,0,89.90968,,0 / 17,33304,2018-04-26 00:49:48:896,,,
-4.1836,8.7223,-0.9341,-3.6776,8.7755,-2.3878,0.1676,-0.3625,-0.8752,-0.2631,0.6156,-0.1393,1.056,-0.89,-36.79,28.62,262.76,-63.45,123,0,1006.16,48.414,30.453468,-84.31873,95.62,NaN,,0,89.90968,,0 / 17,33404,2018-04-26 00:49:48:996,,,
-3.983,8.9306,-1.5206,-3.6573,8.8144,-2.273,0.1913,-0.0987,-0.745,-0.3282,0.5841,-0.1397,1.056,-2.4,-37.66,26.28,255.62,-63.64,122.39,0,1006.16,48.414,30.453468,-84.31873,95.62,NaN,,0,89.90968,,0 / 17,33504,2018-04-26 00:49:49:096,,,
-3.6464,9.0354,-1.2675,-3.6235,8.8454,-2.2059,-0.3744,-0.4962,-0.8174,-0.2634,0.4413,-0.0605,1.056,-2.99,-38.44,26.04,254.33,-63.96,121.86,0,1006.18,47.164,30.453468,-84.31873,95.62,NaN,,0,89.90968,,0 / 17,33603,2018-04-26 00:49:49:195,,,
-3.5569,9.2292,-1.6082,-3.588,8.8739,-2.1488,0.1349,-0.0857,-0.407,-0.1878,0.3813,-0.0773,1.056,-4.51,-39.32,24.67,249.53,-64.6,121.03,0,1006.19,47.164,30.453468,-84.31873,95.62,NaN,,0,89.90968,,0 / 17,33703,2018-04-26 00:49:49:295,,,
-3.7825,8.9246,-1.6465,-3.5609,8.8986,-2.0906,-0.1927,-0.2183,-0.4309,-0.2276,0.2539,-0.0283,1.056,-5.07,-38.85,22.68,246.42,-65.11,120.42,0,1006.19,47.164,30.453468,-84.31873,95.62,NaN,,0,89.90968,,0 / 17,33803,2018-04-26 00:49:49:395,,,
-4.075,9.9263,0.5461,-3.716,8.7862,-2.2869,-0.3842,-0.2922,1.272,0.7863,-0.7379,-0.0783,1.056,-3,-38.83,24.91,250.94,-63.59,121.61,0,1006.18,63.462,30.453468,-84.31873,95.62,NaN,,0,89.90968,,0 / 17,33904,2018-04-26 00:49:49:496,,,
-5.2591,8.8042,-2.1791,-3.6015,8.8776,-2.1104,-0.4542,-0.2076,-0.098,-0.4323,0.6986,0.0861,1.056,-4.73,-39.13,23.34,245.97,-64.82,120.37,0,1006.06,63.462,30.453468,-84.31873,95.62,NaN,,0,89.90968,,0 / 17,34004,2018-04-26 00:49:49:596,,,
-3.5258,9.1871,-1.6357,-3.5839,8.8632,-2.1989,0.1019,-0.0706,0.1716,0.0758,-0.1451,-0.0248,0.71,-5.78,-39.23,22.91,245.28,-64.62,121.53,0,1006.06,63.462,30.453468,-84.31873,95.62,NaN,,0,89.90968,,0 / 17,34105,2018-04-26 00:49:49:697,,,
-4.1693,9.1955,-2.2079,-3.4078,8.9701,-2.0396,-0.1829,-0.6774,0.197,-0.2237,0.2354,0.0807,0.71,-5.42,-40.02,23.41,245.85,-64.95,121.31,0,1006.09,62.599,30.453468,-84.31873,95.62,NaN,,0,89.90968,,0 / 17,34205,2018-04-26 00:49:49:797,,,
-3.1295,9.0318,-2.5089,-3.2248,9.1119,-1.6763,-1.1227,-5.4945,1.9863,-1.3729,0.6632,-0.3389,0.71,-7.46,-40.71,21.11,240.5,-66.12,120.9,0,1006.09,62.599,30.453468,-84.31873,95.62,NaN,,0,89.90968,,0 / 17,34304,2018-04-26 00:49:49:896,,,
-1.9621,13.047,-4.0202,-4.5047,8.67,0.8803,-4.4102,-4.6916,0.1014,-2.721,-0.4031,-1.3321,0.71,-2.78,-45.05,11.45,211.27,-67.21,98.59,0,1005.87,62.599,30.453468,-84.31873,95.62,NaN,,0,89.90968,,0 / 17,34403,2018-04-26 00:49:49:995,,,
1.5105,9.175,0.8903,-5.6539,7.9685,0.8791,-6.6026,-0.993,-0.3555,-1.2828,3.0958,-1.3128,0.71,4.84,-46.43,2.72,189.14,-54.32,81.16,2,1005.85,62.599,30.453468,-84.31873,95.62,NaN,,0,89.90968,,0 / 17,34503,2018-04-26 00:49:50:095,,,
4.3194,6.1892,0.1263,-6.8868,6.9003,-1.093,-8.9431,4.1369,0.5903,-1.1123,3.473,-2.0315,0.71,9.07,-45.4,1.85,185.98,-47.77,86.92,2,1005.85,69.908,30.453468,-84.31873,95.62,NaN,,0,89.90968,,0 / 17,34604,2018-04-26 00:49:50:196,,,
5.3078,2.7579,-0.3667,-2.4294,9.0179,-3.002,-9.9719,-1.2811,4.2712,-1.0333,5.1187,2.9974,0.71,5.98,-46.66,0.69,176.58,-52.64,113.01,2,1005.9,69.908,30.453468,-84.31873,95.62,NaN,,0,89.90968,,0 / 17,34703,2018-04-26 00:49:50:295,,,
6.6662,10.5439,-6.7142,0.3069,9.4185,-2.7263,-7.2973,-4.8421,2.9155,0.2677,3.5664,2.5969,19.016,-12.2,-44.84,-6.63,215.26,-73.76,-173.58,2,1005.93,69.908,30.453468,-84.31873,95.62,NaN,,0,89.90968,,0 / 17,34804,2018-04-26 00:49:50:396,,,
6.6065,11.2338,-5.4812,3.88,8.5389,-2.8756,-3.9144,-2.3463,2.6202,1.2119,3.5707,1.9368,19.016,-20.79,-41.27,-8.59,242.75,-60.51,-126.54,2,1005.93,57.247,30.453468,-84.31873,95.62,NaN,,0,89.90968,,0 / 17,34903,2018-04-26 00:49:50:495,,,
9.789,11.6781,-7.3307,4.9276,8.1786,-2.2505,-4.5714,-3.8728,5.5946,1.4555,4.1762,0.4154,19.016,-21.05,-40.59,-12.1,241.03,-56.48,-114.55,2,1005.96,57.247,30.453468,-84.31873,95.62,NaN,,0,89.90968,,0 / 17,35003,2018-04-26 00:49:50:595,,,
9.6517,12.1247,-7.5382,5.4589,8.0927,-0.9722,-0.3007,1.5713,6.7924,2.2614,5.277,-0.7278,19.016,-12.85,-43.25,-12.02,220.37,-54.14,-107.36,2,1006,57.247,30.453468,-84.31873,95.62,NaN,,0,89.90968,,0 / 17,35104,2018-04-26 00:49:50:696,,,
4.9496,5.8195,-6.4131,5.6416,8.0198,0.3016,0.313,2.9644,5.046,1.0123,3.4766,-0.0125,19.016,-5.53,-45.83,-10.57,208.54,-56.64,-92.34,2,1006.04,56.538,30.453468,-84.31873,95.62,NaN,,0,89.90968,,0 / 17,35204,2018-04-26 00:49:50:796,,,
5.8545,4.8191,-3.6784,6.3279,7.473,0.5894,0.899,2.9132,2.0068,1.226,1.8943,1.9284,19.016,-8.82,-46.29,-6.15,192.84,-49.62,-84.68,2,1006.04,56.538,30.453468,-84.31873,95.62,NaN,,0,89.90968,,0 / 17,35303,2018-04-26 00:49:50:895,,,
6.8966,3.6247,-1.6669,8.2055,5.3648,0.3545,-1.9446,1.6805,1.0389,0.8895,0.6413,2.6253,19.016,-14.85,-44.67,-5.4,188.87,-41.37,-85.04,2,1006.04,56.538,30.453468,-84.31873,95.62,NaN,,0,89.90968,,0 / 17,35404,2018-04-26 00:49:50:996,,,
10.1603,3.7848,-0.3356,8.5405,4.8021,-0.4861,-4.5351,0.5867,-0.7294,2.3911,-0.2287,0.2424,24.298,-23.81,-40.52,3.37,176.1,-29.31,-93.26,2,1006.07,45.999,30.453468,-84.31873,95.62,NaN,,0,89.90968,,0 / 17,35504,2018-04-26 00:49:51:096,,,
12.2505,4.1412,0.3529,8.2968,5.0301,-1.448,-2.7902,1.7254,-1.6386,2.2843,0.3544,-0.812,24.298,-22.55,-39.27,12.15,159.29,-30.85,-99.9,2,1006.09,45.999,30.453468,-84.31873,95.62,NaN,,0,89.90968,,0 / 17,35604,2018-04-26 00:49:51:196,,,
8.3136,2.5965,-0.3655,8.3955,4.8834,-1.3798,1.6833,2.3541,-0.684,1.2881,0.848,-0.1813,24.298,-23.22,-38.81,14.14,154.76,-29.85,-99.33,2,1006.11,45.999,30.453468,-84.31873,95.62,NaN,,0,89.90968,,0 / 17,35705,2018-04-26 00:49:51:297,,,
6.8954,1.1578,-1.1776,8.0466,5.3361,-1.7365,-2.3109,1.9915,0.2279,1.8299,0.0719,-0.4422,24.298,-21.36,-37.79,18.84,142.88,-31.07,-99.34,2,1006.11,45.999,30.453468,-84.31873,95.62,NaN,,0,89.90968,,0 / 17,35804,2018-04-26 00:49:51:396,,,
10.5876,4.5157,-2.0747,8.2947,4.6917,-2.3286,-1.3951,1.2825,0.9576,1.9985,0.7354,0.1571,24.298,-21.54,-34.23,25.15,128.52,-31.4,-105.5,2,1006.11,42.053,30.453468,-84.31873,95.62,NaN,,0,89.90968,,0 / 17,35904,2018-04-26 00:49:51:496,,,
9.1504,4.0473,-2.4346,8.4818,4.4208,-2.1799,-0.8756,1.7577,1.7406,-0.0076,0.3253,0.2792,24.298,-23.17,-31.93,26.81,125.34,-28.57,-105.68,2,1006.11,42.053,30.453468,-84.31873,95.62,NaN,,0,89.90968,,0 / 17,36004,2018-04-26 00:49:51:596,,,
10.1066,3.6283,-3.8895,8.196,5.0306,-1.9379,-0.5406,-0.4549,1.6042,0.6812,0.6838,-0.8184,24.298,-24.41,-30.17,25.86,124.3,-26.89,-103.35,2,1006.12,42.053,30.453468,-84.31873,95.62,NaN,,0,89.90968,,0 / 17,36105,2018-04-26 00:49:51:697,,,
9.1325,5.1032,-3.568,7.7233,5.645,-2.1726,0.0413,1.1751,-0.025,1.9043,0.8346,-1.4567,42.258,-22.33,-29.75,29.07,109.62,-35.13,-105.71,2,1006.13,54.255,30.453468,-84.31873,95.62,NaN,,0,89.90968,,0 / 17,36204,2018-04-26 00:49:51:796,,,
8.2384,4.6132,-3.5764,7.3883,5.7656,-2.8995,-0.2937,-0.6361,-0.0803,1.8937,0.7342,-0.812,42.258,-21.53,-25.49,32.65,92.79,-36,-111.43,2,1006.13,54.255,30.453468,-84.31873,95.62,NaN,,0,89.90968,,0 / 17,36304,2018-04-26 00:49:51:896,,,
7.3658,5.7341,-3.0559,7.4825,5.407,-3.3184,0.9598,-0.1235,1.5895,2.4288,1.5473,-0.6406,42.258,-27.49,-15.67,35.13,69.01,-33.45,-113.92,2,1006.13,54.255,30.453468,-84.31873,95.62,NaN,,0,89.90968,,0 / 17,36404,2018-04-26 00:49:51:996,,,
8.4532,7.0356,-4.0562,6.7332,5.9849,-3.8835,-1.6575,0.0596,-0.6294,2.2835,0.592,-3.0512,42.258,-27.9,-12.59,35.65,48.02,-37.6,-119.98,2,1006.13,58.173,30.453468,-84.31873,95.62,NaN,,0,89.90968,,0 / 17,36504,2018-04-26 00:49:52:096,,,
7.7489,5.7882,-3.321,5.1864,6.5709,-5.1147,-1.276,0.6573,-1.3106,2.003,0.4109,-2.1203,42.258,-26.72,-11.44,36.98,31.1,-41.46,-127.89,2,1006.13,58.173,30.453468,-84.31873,95.62,NaN,,0,89.90968,,0 / 17,36604,2018-04-26 00:49:52:196,,,
7.7048,4.5181,-3.0631,4.8546,6.6995,-5.2712,-2.558,1.7235,-1.9403,0.1808,0.1606,-0.5544,42.258,-26.6,-10.88,37.2,12.73,-43.07,-137.36,2,1006.13,58.173,30.453468,-84.31873,95.62,NaN,,0,89.90968,,0 / 17,36704,2018-04-26 00:49:52:296,,,
7.1568,4.2917,-3.6712,4.6934,6.8671,-5.2011,-2.4118,1.5445,-0.3849,0.1899,0.3425,-0.4727,42.258,-25.29,-11.09,36.7,15.81,-43.64,-137.73,2,1006.14,54.753,30.453468,-84.31873,95.62,NaN,,0,89.90968,,0 / 17,36804,2018-04-26 00:49:52:396,,,
7.1879,7.4172,-4.9438,4.4563,7.1111,-5.0803,-2.7628,-0.8334,-0.061,0.2674,0.9508,-1.5191,42.258,-27.34,-13.53,35.54,8.56,-46.46,-138.74,2,1006.14,54.753,30.453468,-84.31873,95.62,NaN,,0,89.90968,,0 / 17,36904,2018-04-26 00:49:52:496,,,
6.6316,8.4839,-4.7135,3.9951,7.6088,-4.7309,-1.9643,-1.153,0.2508,0.0627,1.4238,-0.8001,10.564,-30.15,-17.38,31.87,354.41,-50.86,-139.82,2,1006.15,54.753,30.453468,-84.31873,95.62,NaN,,0,89.90968,,0 / 17,37003,2018-04-26 00:49:52:595,,,
4.9998,8.7079,-5.2796,4.1434,7.8574,-4.1628,-0.0867,-1.9794,-0.9136,0.2325,1.4137,-0.6921,10.564,-34.45,-17.76,26.89,348,-53.22,-135.13,2,1006.15,49.877,30.453468,-84.31873,95.62,NaN,,0,89.90968,,0 / 17,37103,2018-04-26 00:49:52:695,,,
3.2736,8.8536,-3.5645,4.3203,8.048,-3.5778,0.1926,0.1635,1.2589,-0.7614,1.4787,-0.4569,10.564,-34.83,-19.39,24.04,350.84,-55.12,-129.63,2,1006.15,49.877,30.453468,-84.31873,95.62,NaN,,0,89.90968,,0 / 17,37203,2018-04-26 00:49:52:795,,,
4.2167,8.0421,-4.4652,4.6416,8.3017,-2.4028,0.576,-0.4763,0.9551,-0.566,1.0876,3.00E-04,10.564,-38.13,-21.58,16.47,343.5,-57.89,-122.24,2,1006.15,49.877,30.453468,-84.31873,95.62,NaN,,0,89.90968,,0 / 17,37304,2018-04-26 00:49:52:896,,,
4.4005,8.4069,-3.0895,4.7164,8.3889,-1.902,0.5047,0.5509,1.5201,-0.8723,0.6917,-0.151,10.564,-39.35,-22.99,12.23,351.39,-58.78,-111.96,2,1006.15,49.877,30.453468,-84.31873,95.62,NaN,,0,89.90968,,0 / 17,37404,2018-04-26 00:49:52:996,,,
3.7679,7.1126,-3.3389,4.9335,8.4314,-0.8989,1.3624,1.1733,1.9015,-0.726,0.5484,0.1545,10.564,-40.25,-23.53,9.91,359.14,-60,-104.53,2,1006.15,42.966,30.453468,-84.31873,95.62,NaN,,0,89.90968,,0 / 17,37503,2018-04-26 00:49:53:095,,,
3.898,7.9277,-1.9452,5.6771,7.9591,-0.8116,-0.6125,-1.1612,-0.1771,-0.0815,0.0137,0.6703,10.564,-41.78,-21.12,7.54,2.26,-57.68,-99.47,2,1006.15,42.966,30.453468,-84.31873,95.62,NaN,,0,89.90968,,0 / 17,37603,2018-04-26 00:49:53:195,,,
6.4179,9.0257,-0.1088,6.4212,7.3834,-0.6991,-0.5105,-2.5192,-2.4654,-0.2784,0.0193,1.2354,8.452,-43.52,-15.78,8.86,10.26,-48.82,-96.21,2,1006.15,42.966,30.453468,-84.31873,95.62,NaN,,0,89.90968,,0 / 17,37704,2018-04-26 00:49:53:296,,,
8.0999,10.4235,4.6961,6.5368,7.2751,0.7617,-1.3718,-3.1039,-4.0584,-0.6717,1.0002,-0.2268,8.452,-44.24,-14.76,3.71,22.39,-47.87,-83.35,2,1006.16,34.435,30.453468,-84.31873,95.62,NaN,,0,89.90968,,0 / 17,37804,2018-04-26 00:49:53:396,,,
7.8313,10.1009,4.6301,6.681,6.7968,2.3245,-0.8165,-0.7971,-1.8909,-2.7196,0.845,0.6246,8.452,-45.44,-14.18,-0.33,37.39,-43.86,-70.82,2,1006.16,34.435,30.453468,-84.31873,95.62,NaN,,0,89.90968,,0 / 17,37904,2018-04-26 00:49:53:496,,,
7.7776,6.8851,4.3351,6.4233,5.5194,4.9511,0.1343,0.4889,2.0325,-2.119,1.1318,0.3442,8.452,-45.21,-11.35,-9.39,36.94,-38.3,-61.07,2,1006.16,34.435,30.453468,-84.31873,95.62,NaN,,0,89.90968,,0 / 17,38003,2018-04-26 00:49:53:595,,,
6.0371,4.6276,3.156,5.5981,4.7069,6.5377,0.0018,-0.1073,4.0625,-1.6988,0.7513,-0.5201,8.452,-43.59,-9.69,-16.67,54.82,-30.6,-45.15,2,1006.16,35.765,30.453468,-84.31873,95.62,NaN,,0,89.90968,,0 / 17,38104,2018-04-26 00:49:53:696,,,
5.1096,4.907,3.198,5.1959,4.9166,6.7131,-1.174,0.6929,4.442,0.5299,0.5714,-0.6965,8.452,-42.62,-11,-18.12,63.76,-28.67,-40.57,2,1006.14,35.765,30.453468,-84.31873,95.62,NaN,,0,89.90968,,0 / 17,38204,2018-04-26 00:49:53:796,,,
6.2496,4.9707,3.5374,4.7488,5.4021,6.671,-0.9331,-0.4925,2.584,0.2255,0.321,-0.4474,8.452,-40.57,-14.45,-19.69,64.4,-33.19,-35.87,2,1006.14,35.765,30.453468,-84.31873,95.62,NaN,,0,89.90968,,0 / 17,38305,2018-04-26 00:49:53:897,,,
5.0714,5.8232,5.2934,4.5955,5.5124,6.6881,-0.103,0.093,2.1894,0.1397,0.5184,-0.415,19.016,-40.08,-14.58,-20.05,66.11,-34.19,-34.49,2,1006.14,35.765,30.453468,-84.31873,95.62,NaN,,0,89.90968,,0 / 17,38404,2018-04-26 00:49:53:996,,,
4.1797,5.4066,4.7321,4.3129,5.6479,6.7629,0.2127,-0.138,1.8893,-0.0175,0.1764,-0.2661,19.016,-39.25,-15.51,-22.04,65.33,-35.15,-32.53,2,1006.12,44.421,30.453468,-84.31873,95.62,NaN,,0,89.90968,,0 / 17,38504,2018-04-26 00:49:54:096,,,
4.0018,5.8617,5.1927,4.7208,5.4466,6.6547,-0.3414,0.2975,0.263,-0.1963,-0.5811,0.4808,19.016,-39.71,-14.24,-19.98,64.01,-33.72,-35.35,2,1006.12,44.421,30.453468,-84.31873,95.62,NaN,,0,89.90968,,17-Aug,38604,2018-04-26 00:49:54:196,,,
2.524,7.7411,6.614,5.2437,5.1425,6.5035,-0.1952,0.0593,-0.4989,-0.6526,-0.4149,-0.0193,19.016,-40.83,-12.98,-18.08,64.66,-31.61,-38.88,2,1006.12,44.421,30.453468,-84.31873,95.62,NaN,,0,89.90968,,17-Aug,38704,2018-04-26 00:49:54:296,,,
5.562,5.5282,7.8926,5.1823,4.6034,6.9418,1.8236,-0.1041,-0.1833,-0.8239,-0.0152,-0.4561,19.016,-41.15,-11.93,-18.78,64.72,-29.97,-38.07,2,1006.12,44.749,30.453468,-84.31873,95.62,NaN,,0,89.90968,,17-Aug,38804,2018-04-26 00:49:54:396,,,
4.4614,3.2334,7.5928,5.135,3.9805,7.3501,2.8784,1.9526,-3.8271,-2.1582,0.4924,-0.53,19.016,-42.11,-11.73,-18.74,69.49,-27.99,-36.74,2,1006.12,44.749,30.453468,-84.31873,95.62,NaN,,0,89.90968,,17-Aug,38904,2018-04-26 00:49:54:496,,,
4.8756,4.6373,5.5033,4.5427,3.0133,8.156,3.3321,3.6757,-6.1201,-1.3537,-0.4318,-1.1939,19.016,-40,-10.88,-21.49,84.41,-19.41,-30.22,2,1006.11,44.749,30.453468,-84.31873,95.62,NaN,,0,89.90968,,17-Aug,39004,2018-04-26 00:49:54:596,,,
-1.0799,1.1337,10.4594,3.8806,3.1989,8.4228,5.057,1.6959,-1.3299,0.6361,0.7638,0.0899,15.847,-37.75,-12.38,-24.54,87.04,-19.03,-24.74,2,1006.11,42.302,30.453468,-84.31873,95.62,NaN,,0,89.90968,,17-Aug,39104,2018-04-26 00:49:54:696,,,
-2.1244,2.0752,8.8138,3.5083,3.1411,8.6059,5.697,1.72,-0.8741,0.3806,0.3431,2.1055,15.847,-38.21,-9.3,-27.08,80.75,-18.67,-22.18,2,1006.12,42.302,30.453468,-84.31873,95.62,NaN,,0,89.90968,,17-Aug,39204,2018-04-26 00:49:54:796,,,
1.8591,2.2125,11.0136,3.2884,3.0835,8.7129,2.6201,0.1674,-0.5586,0.9969,0.9578,1.8892,15.847,-37.84,-7.21,-27.79,75.79,-18.2,-23.16,2,1006.12,42.302,30.453468,-84.31873,95.62,NaN,,0,89.90968,,17-Aug,39304,2018-04-26 00:49:54:896,,,
1.3171,2.782,9.9497,2.7168,2.6858,9.0356,-0.8352,0.6567,-1.9941,-0.2066,1.5188,2.426,15.847,-33.6,0.26,-32.08,64.63,-15.89,-16.73,2,1006.12,53.224,30.453468,-84.31873,95.62,NaN,,0,89.90968,,17-Aug,39404,2018-04-26 00:49:54:996,,,
3.3142,-0.2268,13.9666,1.6291,1.5436,9.5498,-1.2658,2.3563,-4.5877,-0.5572,1.3989,2.2779,15.847,-27.13,10.38,-36.27,51.81,-9.05,-9.68,2,1006.12,53.224,30.453468,-84.31873,95.62,NaN,,0,89.90968,,17-Aug,39504,2018-04-26 00:49:55:096,,,
3.3345,-1.1322,12.3186,1.2906,1.7952,9.5576,-3.7024,0.71,0.1175,1.2077,0.49,2.7318,15.847,-22.35,15.03,-38.32,35.7,-9.05,-9.68,2,1006.12,53.224,30.453468,-84.31873,95.62,NaN,,0,89.90968,,0 / 17,39605,2018-04-26 00:49:55:197,,,
3.935,1.8838,8.9194,1.5219,2.5583,9.3475,-2.831,-0.4384,-0.2452,0.9115,0.5181,2.4087,15.847,-15.43,14.79,-41.67,19.71,-13.4,-8.2,2,1006.12,53.224,30.453468,-84.31873,95.62,NaN,,0,89.90968,,0 / 17,39705,2018-04-26 00:49:55:297,,,
3.1638,3.4128,9.3667,1.7224,2.9452,9.1976,-0.2687,-0.7904,0.3806,0.6444,0.2327,0.9119,15.847,-12.01,12.99,-42.52,8.57,-17.47,-10.61,2,1006.12,54.766,30.453468,-84.31873,95.62,NaN,,0,89.90968,,0 / 17,39804,2018-04-26 00:49:55:396,,,
1.4186,3.9703,9.3452,0.9398,2.9456,9.31,2.3475,0.3839,-1.004,-0.295,1.0668,0.5088,15.847,-7.62,13.51,-43.81,7.54,-17.47,-5.76,2,1006.13,54.766,30.453468,-84.31873,95.62,NaN,,0,89.90968,,0 / 17,39903,2018-04-26 00:49:55:495,,,
-1.45,0.8026,10.7341,0.368,3.1417,9.286,0.5166,1.5523,-0.7275,0.2759,0.703,1.0509,15.847,-4.17,14.25,-43.37,3.28,-16.6,-3.36,2,1006.13,54.766,30.453468,-84.31873,95.62,NaN,,0,89.90968,,0 / 17,40004,2018-04-26 00:49:55:596,,,
0.1162,1.6033,9.8141,0.3463,3.3663,9.2078,-1.1052,1.0213,1.4092,0.2577,-0.0994,0.7485,15.847,-0.27,12.39,-44.36,356.41,-20.07,-2.15,2,1006.13,44.1,30.453468,-84.31873,95.62,NaN,,0,89.90968,,0 / 17,40104,2018-04-26 00:49:55:696,,,
2.5538,2.0319,8.2872,0.9699,3.5104,9.1089,-2.4793,1.6612,-0.3755,0.1138,-0.4988,0.5407,15.847,-1.25,10.65,-44.83,351.85,-20.97,-6.08,2,1006.13,44.1,30.453468,-84.31873,95.62,NaN,,0,89.90968,,0 / 17,40204,2018-04-26 00:49:55:796,,,
2.98,1.7236,10.1848,0.8871,3.4683,9.1334,-2.2489,2.4933,-1.942,-0.2847,0.1267,-0.6992,15.847,-2.51,11.93,-43.8,357.29,-20.7,-5.55,2,1006.12,44.1,30.453468,-84.31873,95.62,NaN,,0,89.90968,,0 / 17,40304,2018-04-26 00:49:55:896,,,
2.0966,1.5406,10.1488,0.548,3.5608,9.1245,-0.959,0.2226,1.342,-0.0056,-0.4179,-0.5519,15.847,-1.29,10.61,-45.29,356.02,-20.34,-3.57,2,1006.12,42.154,30.453468,-84.31873,95.62,NaN,,0,89.90968,,0 / 17,40404,2018-04-26 00:49:55:996,,,
1.0736,3.479,7.7475,1.5948,3.3631,9.0765,-1.9559,-0.8298,0.1754,-0.4427,-1.1963,-0.0119,15.847,-6.32,12.7,-45.59,2.72,-19.65,-5.8,2,1006.12,42.154,30.453468,-84.31873,95.62,NaN,,0,89.90968,,0 / 17,40504,2018-04-26 00:49:56:096,,,
3.128,4.866,6.5253,1.7382,3.4251,9.0268,-1.2852,-1.2029,2.0976,-0.5914,-0.2456,-0.5364,14.79,-8.43,12.16,-43.6,359.01,-20.44,-10.9,2,1006.12,42.154,30.453468,-84.31873,95.62,NaN,,0,89.90968,,0 / 17,40604,2018-04-26 00:49:56:196,,,
2.8391,3.1817,9.3392,1.4914,3.3148,9.1118,-0.1456,-0.0448,1.2607,-0.1227,0.0955,-0.8154,14.79,-9.7,12.94,-43.4,4.96,-18.89,-10.1,2,1006.12,43.346,30.453468,-84.31873,95.62,NaN,,0,89.90968,,0 / 17,40704,2018-04-26 00:49:56:296,,,
1.5654,3.4116,8.1769,1.4528,3.4968,9.0497,0.4273,0.2978,0.9217,0.2751,0.0746,-0.4328,14.79,-11.46,11.39,-43.41,8.83,-20.88,-9.12,2,1006.12,43.346,30.453468,-84.31873,95.62,NaN,,0,89.90968,,0 / 17,40804,2018-04-26 00:49:56:396,,,
1.3279,4.0004,7.7451,1.404,3.5989,9.0174,0.2816,-0.4175,0.6901,0.0833,0.0362,0.0149,14.79,-10.92,10.91,-43.42,9.14,-21.52,-8.85,2,1006.11,43.346,30.453468,-84.31873,95.62,NaN,,0,89.90968,,0 / 17,40905,2018-04-26 00:49:56:497,,,
0.7489,3.9173,8.9349,1.6843,2.9509,9.2028,-0.139,-0.3633,-1.8869,-0.7679,-0.4637,-0.0872,14.79,-12.8,12.89,-43.5,10.55,-17.51,-10.37,2,1006.11,43.346,30.453468,-84.31873,95.62,NaN,,0,89.90968,,0 / 17,41004,2018-04-26 00:49:56:596,,,
1.181,2.7013,10.403,1.4476,2.5479,9.3621,0.349,0.3604,0.0237,-0.9635,0.5542,0.2249,14.79,-12.28,14.19,-42.75,8.64,-17.51,-10.37,2,1006.1,40.404,30.453468,-84.31873,95.62,NaN,,0,89.90968,,0 / 17,41105,2018-04-26 00:49:56:697,,,
1.1667,1.9139,9.6102,1.0593,1.7294,9.5981,0.2557,-0.2406,0.8979,-0.6771,0.316,0.2594,14.79,-9.61,18.74,-41.11,9.94,-11.4,-7.29,2,1006.1,40.404,30.453468,-84.31873,95.62,NaN,,0,89.90968,,0 / 17,41203,2018-04-26 00:49:56:795,,,
0.5496,2.5339,8.3136,0.9178,1.7465,9.6096,0.3589,-0.8542,1.5098,0.0397,0.1369,0.4434,14.79,-7.78,20.04,-41.92,8.29,-10.25,-5.46,2,1006.1,40.404,30.453468,-84.31873,95.62,NaN,,0,89.90968,,0 / 17,41305,2018-04-26 00:49:56:897,,,
1.2598,1.4828,9.1041,1.2759,1.4942,9.6112,-1.4309,1.0186,-1.8975,-0.2665,-0.4018,0.2444,14.79,-7.73,20.09,-42.37,7.34,-9.78,-6.13,2,1006.1,44.926,30.453468,-84.31873,95.62,NaN,,0,89.90968,,0 / 17,41404,2018-04-26 00:49:56:996,,,
1.3219,-0.2761,11.5233,1.2956,1.5563,9.5987,-1.5991,1.0801,-1.2418,0.1066,-0.0459,0.0824,14.79,-9.13,21.42,-41.09,8.21,-8.12,-7.12,2,1006.1,44.926,30.453468,-84.31873,95.62,NaN,,0,89.90968,,0 / 17,41503,2018-04-26 00:49:57:095,,,
2.5192,0.7749,10.6621,1.2978,1.5416,9.6008,-1.5312,1.3461,0.366,-0.1501,0.098,0.0633,14.79,-8.83,19.83,-41.53,7.09,-9.04,-7.7,2,1006.1,44.926,30.453468,-84.31873,95.62,NaN,,0,89.90968,,0 / 17,41603,2018-04-26 00:49:57:195,,,
1.8674,-0.1076,8.9889,0.8398,0.6879,9.7497,-1.7002,1.1917,-0.125,-0.8077,0.4351,-0.0289,14.79,-6.48,23.18,-41.05,5.44,-4.02,-4.92,2,1006.1,37.885,30.453468,-84.31873,95.62,NaN,,0,89.90968,,0 / 17,41703,2018-04-26 00:49:57:295,,,
2.9585,0.1513,10.4498,0.935,0.7709,9.7349,-0.95,0.1779,1.0929,0.6467,-0.336,-0.3586,14.79,-6.57,23.83,-39.25,6.83,-4.51,-5.49,2,1006.1,37.885,30.453468,-84.31873,95.62,NaN,,0,89.90968,,0 / 17,41804,2018-04-26 00:49:57:396,,,
2.1348,0.5811,8.9613,0.7465,1.2,9.7077,-0.8741,2.1141,2.0138,0.3226,0.2363,-0.1409,14.79,-7.19,21.57,-40.14,6.14,-6.87,-5.87,2,1006.1,37.885,30.453468,-84.31873,95.62,NaN,,0,89.90968,,0 / 17,41904,2018-04-26 00:49:57:496,,,
1.5045,-0.9335,8.2225,0.427,1.0117,9.7483,-0.1998,2.9731,1.3612,-0.4496,0.6819,0.1548,8.452,-4.64,22.53,-40.73,6.73,-5.92,-2.51,2,1006.11,32.087,30.453468,-84.31873,95.62,NaN,,0,89.90968,,0 / 17,42004,2018-04-26 00:49:57:596,,,
0.3478,-2.5023,7.456,0.4521,1.6736,9.6556,-0.4927,1.8204,2.2202,0.2975,0.3189,0.145,8.452,-3.91,23.41,-40.65,7.56,-3.41,-0.88,2,1006.11,32.087,30.453468,-84.31873,95.62,NaN,,0,89.90968,,0 / 17,42104,2018-04-26 00:49:57:696,,,
1.3744,1.4576,11.473,0.3325,1.2957,9.7184,-0.1309,-0.6996,-0.3461,-0.5207,0.3815,0.104,8.452,-5.04,20.45,-40.94,7.28,-8.95,-2.31,2,1006.1,32.087,30.453468,-84.31873,95.62,NaN,,0,89.90968,,0 / 17,42204,2018-04-26 00:49:57:796,,,
0.6474,1.8946,10.4438,-0.0703,0.9454,9.7641,0.4544,-3.0381,0.4261,-0.5318,1.2364,0.6062,8.452,-2.63,22.49,-41.31,7.26,-5.53,0.41,2,1006.11,32.087,30.453468,-84.31873,95.62,NaN,,0,89.90968,,0 / 17,42303,2018-04-26 00:49:57:895,,,
-0.8972,3.5344,10.6957,-3.1319,-0.9586,9.2471,-1.6406,-4.6326,-1.3569,-1.6426,2.2774,0.664,8.452,8.41,27.85,-36.13,9.29,5.61,18.71,2,1006.1,43.377,30.453468,-84.31873,95.62,NaN,,0,89.90968,,0 / 17,42404,2018-04-26 00:49:57:996,,,
-0.2204,4.9491,10.1848,-7.056,-2.7056,6.2553,-4.0014,-2.5927,2.5383,-7.5266,6.7888,5.915,8.452,22.92,33.84,-22.1,2.88,16.01,48.44,2,1006.1,43.377,30.453468,-84.31873,95.62,NaN,,0,89.90968,,0 / 17,42506,2018-04-26 00:49:58:098,,,
-7.2849,-1.9015,-3.1986,-9.3976,2.7922,0.3525,1.6238,2.0321,5.3762,-1.907,0.9316,5.3766,8.452,40.59,4.15,19.41,272.43,4.53,76.63,2,1006.07,43.377,30.453468,-84.31873,95.62,NaN,,0,89.90968,,0 / 17,42605,2018-04-26 00:49:58:197,,,
-10.5056,2.4448,-3.7863,-6.7677,7.0929,0.3528,2.8147,0.2164,2.9259,-1.909,1.5621,4.3663,8.452,31.71,-25.06,21.68,260.52,-33.41,86.74,0,1006.07,47.452,30.453468,-84.31873,95.62,NaN,,0,89.90968,,0 / 17,42704,2018-04-26 00:49:58:296,,,
-9.4718,8.8138,-5.8302,-5.9064,7.8318,-0.1159,-2.7906,-0.0556,0.5384,0.782,1.1001,2.2464,5.282,23.23,-32.7,23.54,267.23,-52.97,91.12,0,1006.1,47.452,30.453468,-84.31873,95.62,NaN,,0,89.90968,,0 / 17,42805,2018-04-26 00:49:58:397,,,
-6.8074,8.1637,-0.5359,-3.5065,9.1383,-0.6568,0.2074,-0.703,0.7866,-0.1926,0.0405,2.1217,5.282,16.36,-35.69,24.16,270.96,-61.98,99,0,1006.1,47.452,30.453468,-84.31873,95.62,NaN,,0,89.90968,,0 / 17,42904,2018-04-26 00:49:58:496,,,
-1.7651,11.4601,-1.8385,-2.9348,9.2816,-1.2142,0.5944,-1.9518,-0.0496,0.5475,-0.1723,0.5231,5.282,11.17,-35.78,27.08,290.43,-71.11,112.48,0,1006.1,66.434,30.453468,-84.31873,95.62,NaN,,0,89.90968,,0 / 17,43004,2018-04-26 00:49:58:596,,,
-3.447,11.5155,-1.096,-2.7801,9.3493,-1.0474,0.3453,-0.4429,0.5867,-0.4785,0.6021,0.0511,5.282,8.78,-35.6,26.63,285.67,-72.37,110.64,0,1006.15,66.434,30.453468,-84.31873,95.62,NaN,,0,89.90968,,0 / 17,43104,2018-04-26 00:49:58:696,,,
-2.5828,9.0474,-0.9041,-3.0516,9.2568,-1.1118,3.3704,2.7305,1.2277,0.0935,-0.0022,-0.4457,5.282,10.18,-36.03,26.44,284.28,-70.67,110.02,0,1006.15,66.434,30.453468,-84.31873,95.62,NaN,,0,89.90968,,0 / 17,43204,2018-04-26 00:49:58:796,,,
-3.9604,9.4579,-1.6357,-2.9494,9.3033,-0.993,0.5447,-0.4181,0.2862,-0.1312,-0.0281,0.1245,5.282,10.3,-36.65,26.37,282.38,-70.54,109.26,0,1006.21,54.11,30.453468,-84.31873,95.62,NaN,,0,89.90968,,0 / 17,43305,2018-04-26 00:49:58:897,,,
-3.4864,9.7674,-1.2003,-3.0215,9.2952,-0.8401,-0.1497,0.2877,0.9094,-0.1363,0.0173,-0.0537,5.282,10.41,-37.01,26.42,282.44,-71.75,107.29,0,1006.18,54.11,30.453468,-84.31873,95.62,NaN,,0,89.90968,,0 / 17,43404,2018-04-26 00:49:58:996,,,
-2.8192,9.2087,-1.4714,-3.2902,9.2159,-0.6918,0.3847,0.7333,-0.4335,-0.0481,0.0999,-0.5037,0.001,10.91,-37.01,24.64,275.82,-69.96,101.87,0,1006.18,54.11,30.453468,-84.31873,95.62,NaN,,0,89.90968,,0 / 17,43504,2018-04-26 00:49:59:096,,,
-4.1931,9.3063,-0.0789,-3.3043,9.1485,-1.2736,-0.0595,-0.6543,1.5614,0.6555,0.0732,-0.0576,0.001,11.26,-35.15,25.97,277.06,-68.15,104.19,0,1006.12,54.11,30.453468,-84.31873,95.62,NaN,,0,89.90968,,0 / 17,43603,2018-04-26 00:49:59:195,,,
-1.7842,10.0383,-0.4915,-3.2103,9.1521,-1.473,0.0387,0.2955,1.4439,0.6313,0.1788,-0.1635,0.001,10.63,-34.8,28.57,290.2,-68.9,114.65,0,1006.12,53.366,30.453468,-84.31873,95.62,NaN,,0,89.90968,,0 / 17,43704,2018-04-26 00:49:59:296,,,
-3.1689,8.8235,-3.0223,-3.354,8.9566,-2.1833,0.8328,0.2128,1.1894,0.239,-0.0217,0.0528,0.001,10.52,-32.74,31.37,297.49,-65.92,123.06,0,1006.13,53.366,30.453468,-84.31873,95.62,NaN,,0,89.90968,,0 / 17,43804,2018-04-26 00:49:59:396,,,
-3.6739,8.6284,-2.9959,-3.2502,8.9839,-2.2274,-0.1863,0.6335,1.4458,0.0757,-0.2036,0.1756,0.001,10.18,-32.57,31.06,297.45,-66.32,124.42,0,1006.13,53.366,30.453468,-84.31873,95.62,NaN,,0,89.90968,,0 / 17,43904,2018-04-26 00:49:59:496,,,
-3.4912,7.9205,-3.4529,-3.2067,9.001,-2.2217,0.132,2.0334,1.0541,0.0151,-0.3907,0.1663,0.001,10.32,-32.1,30.41,298.95,-66.57,124.72,0,1006.16,55.892,30.453468,-84.31873,95.62,NaN,,0,89.90968,,0 / 17,44004,2018-04-26 00:49:59:596,,,
-3.1271,7.9169,-3.5225,-3.261,9.0121,-2.0937,2.0442,-2.8141,1.0024,-0.0373,-0.4652,0.0521,0.001,11.53,-31.46,31.06,303.65,-66.99,123.43,0,1006.16,55.892,30.453468,-84.31873,95.62,NaN,,0,89.90968,,0 / 17,44104,2018-04-26 00:49:59:696,,,
-5.1529,11.3482,-3.1674,-3.3133,8.9635,-2.2167,0.7289,-0.7261,-1.0948,0.4955,-0.6083,0.0306,0.237,13.44,-31.39,30.49,305.26,-66.02,123.78,0,1006.19,55.892,30.453468,-84.31873,95.62,NaN,,0,89.90968,,0 / 17,44203,2018-04-26 00:49:59:795,,,
-4.3758,7.9397,-0.3271,-3.2479,9.0045,-2.1461,-0.0125,-0.9576,-0.5711,-0.0019,-0.2152,0.1333,0.237,13.97,-31.21,30.04,307.88,-65.53,124.41,0,1006.14,43.511,30.453468,-84.31873,95.62,NaN,,0,89.90968,,0 / 17,44304,2018-04-26 00:49:59:896,,,
-2.8406,10.6174,-1.7209,-3.4867,8.9825,-1.8421,1.245,0.7345,-0.6565,0.1288,-1.0031,-0.0595,0.237,15.61,-31.38,29.45,310.88,-67.07,121.11,0,1006.18,43.511,30.453468,-84.31873,95.62,NaN,,0,89.90968,,0 / 17,44404,2018-04-26 00:49:59:996,,,
-5.215,7.2246,-1.9668,-3.5311,9.0052,-1.635,1.4074,1.7405,0.4642,-0.4225,-0.2636,0.172,0.237,19.18,-30.35,27.45,310.96,-66.63,114.84,0,1006.18,43.511,30.453468,-84.31873,95.62,NaN,,0,89.90968,,0 / 17,44504,2018-04-26 00:50:00:096,,,
-4.1227,7.5412,-1.6322,-3.2696,9.1747,-1.1708,0.9623,0.9734,0.4627,-0.3926,-0.034,0.2378,0.237,19.04,-33.15,26.87,305.49,-69.27,109.7,0,1006.18,52.339,30.453468,-84.31873,95.62,NaN,,0,89.90968,,0 / 17,44604,2018-04-26 00:50:00:196,,,
-5.049,8.2564,-1.5038,-3.0248,9.2682,-1.0892,2.2274,0.6237,0.8126,-0.1241,0.098,0.4311,0.237,17.73,-34.34,25.08,306.43,-70.87,109.8,0,1006.18,52.339,30.453468,-84.31873,95.62,NaN,,0,89.90968,,0 / 17,44704,2018-04-26 00:50:00:296,,,
-5.3988,8.4394,-2.1575,-2.7389,9.3694,-0.9738,1.9179,-0.7805,-0.4677,-0.1028,0.1429,0.235,0.237,16.13,-34.82,24.84,303.46,-72.76,109.57,0,1006.21,52.339,30.453468,-84.31873,95.62,NaN,,0,89.90968,,0 / 17,44804,2018-04-26 00:50:00:396,,,
-0.8065,9.8926,1.7671,-3.2042,9.2253,-0.9284,-2.6205,-0.4611,-2.3079,-0.3296,0.6369,-0.523,0.284,15.68,-35.67,25.12,297.54,-72.87,105.16,0,1006.1,52.339,30.453468,-84.31873,95.62,NaN,,0,89.90968,,0 / 17,44904,2018-04-26 00:50:00:496,,,
-2.2378,12.8423,-1.2699,-3.4665,9.073,-1.3782,1.7753,-1.6351,0.0774,0.8309,-0.013,-0.3986,0.284,16.16,-34.89,26.01,294.51,-70.12,106.16,0,1006.1,50.032,30.453468,-84.31873,95.62,NaN,,0,89.90968,,0 / 17,45004,2018-04-26 00:50:00:596,,,
-5.1266,9.7794,-1.451,-3.6019,8.8833,-2.0858,-1.292,1.0717,-0.4032,0.3021,0.6795,-0.2046,0.284,15.88,-30.88,29.42,301.84,-65.66,115.87,0,1006.05,50.032,30.453468,-84.31873,95.62,NaN,,0,89.90968,,0 / 17,45104,2018-04-26 00:50:00:696,,,
-3.1056,6.8646,-2.4682,-3.6109,8.8087,-2.3673,-0.429,2.8816,1.2589,-0.043,0.2181,-0.0574,0.284,14.92,-30.46,31.76,306.69,-63.89,123.25,0,1006.05,50.032,30.453468,-84.31873,95.62,NaN,,0,89.90968,,0 / 17,45204,2018-04-26 00:50:00:796,,,
-3.1367,5.8328,-3.1123,-3.7548,8.8179,-2.0933,0.0644,1.3077,1.2992,-0.1715,-0.1879,-0.0901,0.284,15.5,-30.58,31.15,303.04,-64.01,119.14,0,1006.05,56.371,30.453468,-84.31873,95.62,NaN,,0,89.90968,,0 / 17,45304,2018-04-26 00:50:00:896,,,
-4.9344,8.5008,-3.3437,-3.881,8.7816,-2.0146,2.4455,0.808,2.618,-0.1213,-0.116,-0.1398,0.284,16.82,-30.62,29.54,302.69,-63.53,117.43,0,1006.09,56.371,30.453468,-84.31873,95.62,NaN,,0,89.90968,,0 / 17,45404,2018-04-26 00:50:00:996,,,
-6.5531,7.7965,-4.8119,-4.1841,8.6212,-2.0987,-1.0842,3.3704,-5.2963,-0.2528,-0.8609,-0.1046,0.284,16.84,-29.47,31.41,300.28,-61.5,116.64,0,1006.11,56.371,30.453468,-84.31873,95.62,NaN,,0,89.90968,,0 / 17,45504,2018-04-26 00:50:01:096,,,
-0.4735,6.6684,1.4013,-4.0287,8.6558,-2.2546,-0.4052,0.2538,2.1687,1.1622,0.3006,0.06,0.521,17.15,-27.71,31.97,302.63,-61.61,117.81,0,1006.11,58.166,30.453468,-84.31873,95.62,NaN,,0,89.90968,,0 / 17,45604,2018-04-26 00:50:01:196,,,
-8.3509,9.6891,-4.7603,-3.7635,8.8474,-1.9482,-2.4807,0.3156,-0.2451,0.2391,-0.7061,0.1872,0.521,17.62,-30.67,30.12,305.05,-61.93,119.23,0,1006.13,58.166,30.453468,-84.31873,95.62,NaN,,0,89.90968,,0 / 17,45704,2018-04-26 00:50:01:296,,,
-5.425,8.0927,-0.6462,-3.948,8.8405,-1.5795,0.7199,1.0559,0.9482,-0.2633,-0.5374,-0.0606,0.521,17.94,-29.7,28.97,303.38,-64.1,114.53,0,1006.13,58.166,30.453468,-84.31873,95.62,NaN,,0,89.90968,,0 / 17,45803,2018-04-26 00:50:01:395,,,
-4.8974,7.5376,-2.4334,-3.9211,8.8742,-1.4525,1.4469,1.5494,-0.0902,-0.061,-0.2291,0.1721,0.521,20.02,-31.31,27.39,303.67,-64.77,110.33,0,1006.23,52.715,30.453468,-84.31873,95.62,NaN,,0,89.90968,,0 / 17,45905,2018-04-26 00:50:01:497,,,
-5.9646,7.6881,-1.8564,-3.9044,8.9075,-1.2842,1.0435,0.301,0.8508,0.0117,-0.1963,0.0584,0.521,20.51,-31.27,26.23,304.58,-65.23,108.21,0,1006.21,52.715,30.453468,-84.31873,95.62,NaN,,0,89.90968,,0 / 17,46004,2018-04-26 00:50:01:596,,,
-4.1824,10.6908,-0.1916,-4.5719,8.582,-1.2973,-2.765,-3.6974,-0.6093,-0.0775,0.1669,-0.8093,0.521,20.99,-31.24,26.28,298.35,-64.5,104.26,0,1006.21,52.715,30.453468,-84.31873,95.62,NaN,,0,89.90968,,0 / 17,46104,2018-04-26 00:50:01:696,,,
-5.7414,12.1067,-1.5686,-4.8318,8.3806,-1.6296,0.3902,1.4056,0.204,0.4837,0.0502,-0.3116,0.521,23.43,-28.22,28.09,301.4,-58.68,108.64,0,1006.08,52.715,30.453468,-84.31873,95.62,NaN,,0,89.90968,,0 / 17,46204,2018-04-26 00:50:01:796,,,
-4.5524,6.8393,-1.5974,-4.6855,8.4099,-1.8858,-2.2643,0.9906,0.156,-0.227,0.6921,0.1056,1.562,21.24,-27.83,29.89,300.74,-59.01,111.92,0,1006,54.284,30.453468,-84.31873,95.62,NaN,,0,89.90968,,0 / 17,46305,2018-04-26 00:50:01:897,,,
-3.6942,6.4372,-3.0019,-4.5831,8.4465,-1.9717,-1.1883,2.1184,0.8805,0.0732,-0.3112,0.2432,1.562,21.44,-27.73,29.08,303.71,-59.43,113.28,0,1006.04,54.284,30.453468,-84.31873,95.62,NaN,,0,89.90968,,0 / 17,46403,2018-04-26 00:50:01:995,,,
-4.0869,6.5973,-0.9209,-4.4192,8.5094,-2.0728,0.7956,0.2328,0.9049,0.0505,0.3234,0.1899,1.562,19.46,-27.59,30.33,300.4,-60.48,113.37,0,1006.04,54.284,30.453468,-84.31873,95.62,NaN,,0,89.90968,,0 / 17,46505,2018-04-26 00:50:02:097,,,
-6.4146,10.3621,-3.4577,-4.484,8.4632,-2.1224,-0.9039,-3.8095,1.2158,0.9299,-1.3928,-0.0138,1.562,23.05,-26.34,30.01,308.19,-58.59,113.18,0,1006.37,64.015,30.453468,-84.31873,95.62,NaN,,0,89.90968,,0 / 17,46604,2018-04-26 00:50:02:196,,,
-2.3106,11.8972,-0.9029,-4.4394,8.5277,-1.9512,0.7706,-2.2533,-1.9757,0.4066,-0.4672,0.4567,1.562,23.57,-27.42,29.38,313.26,-60.38,113.73,0,1006.37,64.015,30.453468,-84.31873,95.62,NaN,,0,89.90968,,0 / 17,46704,2018-04-26 00:50:02:296,,,
-1.9048,17.9375,-1.1404,-5.0937,8.1824,-1.8272,-1.6579,-3.4809,-4.5892,0.1784,-1.3023,-0.3418,1.562,23.67,-26.8,27.92,317.2,-61.63,114.69,0,1006.11,64.015,30.453468,-84.31873,95.62,NaN,,0,89.90968,,0 / 17,46804,2018-04-26 00:50:02:396,,,
0.9865,16.4434,5.2574,-5.8965,7.5282,-2.1893,-10.7802,0.0402,-4.3884,1.3865,-2.4091,0.5195,1.562,34.26,-16.07,24.64,330.94,-50.12,110.37,0,1005.96,68.757,30.453468,-84.31873,95.62,NaN,,0,89.90968,,0 / 17,46904,2018-04-26 00:50:02:496,,,
3.6759,7.8591,1.111,-5.6768,7.3687,-3.1165,-6.1721,0.5367,-5.1214,1.8552,-0.5491,-0.1283,1.562,37.12,-13.99,22.9,354.26,-48.69,118.77,2,1006,68.757,30.453468,-84.31873,95.62,NaN,,0,89.90968,,0 / 17,47003,2018-04-26 00:50:02:595,,,
-1.3544,8.8981,-0.4891,-5.2042,7.2457,-4.0807,-4.6051,-1.4406,-3.1236,0.8893,1.5374,0.3664,2.113,32.25,-11.6,30.32,350.93,-47.61,128.1,2,1006,68.757,30.453468,-84.31873,95.62,NaN,,0,89.90968,,0 / 17,47104,2018-04-26 00:50:02:696,,,
-0.3469,7.9614,-0.8105,-2.9893,7.3532,-5.7646,-4.839,-3.5168,-3.975,0.5365,3.2424,0.2853,2.113,28.74,-12.15,34.13,358.78,-48.59,138.84,2,1006.01,54.243,30.453468,-84.31873,95.62,NaN,,0,89.90968,,0 / 17,47204,2018-04-26 00:50:02:796,,,
1.6084,10.3501,-4.2001,-0.1236,7.3365,-6.5113,-3.8226,-3.9759,-0.5821,0.02,3.7829,-0.2292,2.113,11.65,-11.47,42.46,4.27,-47.89,166.51,2,1006.01,54.243,30.453468,-84.31873,95.62,NaN,,0,89.90968,,0 / 17,47304,2018-04-26 00:50:02:896,,,
3.6437,11.5733,-5.1525,1.0581,7.6131,-6.0957,-3.9242,-4.325,0.0217,-0.8225,4.0851,-0.9031,2.113,-5.48,-13.68,41.59,5.38,-50.9,-170.15,2,1006.02,54.243,30.453468,-84.31873,95.62,NaN,,0,89.90968,,0 / 17,47404,2018-04-26 00:50:02:996,,,
4.9031,10.6463,-8.0588,2.8718,8.3978,-4.1793,-6.0403,-7.4002,3.603,-0.875,3.1116,-0.5686,2.113,-15.22,-17.5,38.57,358.05,-54.92,-160.08,2,1006.03,54.243,30.453468,-84.31873,95.62,NaN,,0,89.90968,,0 / 17,47505,2018-04-26 00:50:03:097,,,
7.6355,13.1879,-6.689,3.219,8.8227,-2.8345,-6.5345,-2.1825,3.4016,-0.8977,3.0267,-0.8827,2.113,-26.18,-24.75,29.27,10.87,-64.07,-131.37,2,1006.03,53.669,30.453468,-84.31873,95.62,NaN,,0,89.90968,,0 / 17,47604,2018-04-26 00:50:03:196,,,
8.8197,9.2918,-5.8014,2.5666,9.3954,-1.1725,-6.1201,-0.2196,4.2974,-0.3197,3.1609,-1.3386,2.113,-31.02,-29.18,18.77,9.53,-73.28,-114.55,2,1006.05,53.669,30.453468,-84.31873,95.62,NaN,,0,89.90968,,0 / 17,47704,2018-04-26 00:50:03:296,,,
7.0709,5.3127,-4.0142,1.6327,9.6655,0.385,-5.2085,3.7311,4.1049,-0.9054,2.4208,-0.7738,6.339,-31.21,-34.51,5.67,30.06,-80.15,-76.73,2,1006.08,53.669,30.453468,-84.31873,95.62,NaN,,0,89.90968,,0 / 17,47804,2018-04-26 00:50:03:396,,,
6.548,5.4656,-3.5189,1.4118,9.679,0.7479,-3.7184,5.9291,2.627,-0.1228,1.4745,0.0572,6.339,-30.19,-37.26,1.39,19.48,-80.15,-76.73,2,1006.08,49.825,30.453468,-84.31873,95.62,NaN,,0,89.90968,,0 / 17,47904,2018-04-26 00:50:03:496,,,
5.2218,2.9168,-2.1287,2.3492,9.5066,0.5851,-4.1185,4.4067,0.9466,0.1642,1.3159,0.7782,6.339,-31.37,-35.33,-4.51,22.61,-79.33,-63.14,2,1006.1,49.825,30.453468,-84.31873,95.62,NaN,,0,89.90968,,0 / 17,48003,2018-04-26 00:50:03:595,,,
6.338,5.1176,0.0963,3.3808,9.2045,0.2896,-5.4257,1.48,1.703,0.9769,1.769,1.4851,6.339,-35.55,-29.68,-5.88,353.03,-69.76,-85.1,2,1006.1,49.825,30.453468,-84.31873,95.62,NaN,,0,89.90968,,0 / 17,48105,2018-04-26 00:50:03:697,,,
11.0006,8.3972,-1.0396,4.6757,8.5951,-0.7061,-4.8414,-0.5538,2.5467,2.3748,2.6858,1.0468,6.339,-37.78,-26.84,-7.38,340.02,-65.02,-91.95,2,1006.11,46.188,30.453468,-84.31873,95.62,NaN,,0,89.90968,,0 / 17,48204,2018-04-26 00:50:03:796,,,
8.8651,9.0305,-3.7456,5.625,8.0208,-0.5122,-3.403,-1.1435,4.3362,2.2983,4.2011,0.5386,6.339,-34.72,-27.96,-15.11,300.8,-57.26,-98.78,2,1006.12,46.188,30.453468,-84.31873,95.62,NaN,,0,89.90968,,0 / 17,48304,2018-04-26 00:50:03:896,,,
8.2181,8.1023,-4.7867,5.8763,7.853,-0.186,-2.3919,0.0112,4.4698,1.8463,3.7727,0.315,6.339,-26.53,-32.24,-22.67,274.42,-53.18,-91.81,2,1006.13,46.188,30.453468,-84.31873,95.62,NaN,,0,89.90968,,0 / 17,48403,2018-04-26 00:50:03:995,,,
7.8838,7.1078,-4.3537,5.8875,7.8327,0.4714,-2.3974,0.2684,3.2657,1.8504,3.3411,0.0605,15.847,-17.97,-36.28,-24.04,255.49,-52.98,-85.42,2,1006.13,44.702,30.453468,-84.31873,95.62,NaN,,0,89.90968,,0 / 17,48504,2018-04-26 00:50:04:096,,,
5.4319,6.9356,-1.4006,6.1074,7.6571,0.5521,1.5917,0.8759,1.1012,1.1687,1.608,0.9706,15.847,-14.83,-37.93,-23.36,244.08,-51.31,-84.83,2,1006.15,44.702,30.453468,-84.31873,95.62,NaN,,0,89.90968,,0 / 17,48603,2018-04-26 00:50:04:195,,,
4.1689,5.9556,0.0819,7.3354,6.4956,0.485,1.2941,-0.3249,-0.0946,0.4634,0.4635,1.5138,15.847,-16.49,-39.11,-20.87,235.63,-47.36,-85.25,2,1006.15,44.702,30.453468,-84.31873,95.62,NaN,,0,89.90968,,0 / 17,48704,2018-04-26 00:50:04:296,,,
6.1792,6.9368,0.6756,7.8034,5.9412,0.2129,0.3402,0.0332,-0.134,-1.5404,-2.1521,1.1824,15.847,-25.76,-33.28,-20.95,243.37,-37.27,-88.44,2,1006.16,44.702,30.453468,-84.31873,95.62,NaN,,0,89.90968,,0 / 17,48804,2018-04-26 00:50:04:396,,,
9.6887,3.8065,1.045,8.7772,4.2174,-1.1877,-3.9669,0.59,-4.2991,-2.4039,-2.8719,1.7651,15.847,-31.38,-28.4,-20.37,250.62,-32.42,-92.79,2,1006.17,50.51,30.453468,-84.31873,95.62,NaN,,0,89.90968,,0 / 17,48904,2018-04-26 00:50:04:496,,,
13.1529,3.9341,3.7713,9.3252,2.9258,-0.8465,-2.8771,0.6642,-2.7954,-1.5429,-0.0845,1.1035,15.847,-40.24,-15.22,-17.46,267.92,-20.8,-98.12,2,1006.18,50.51,30.453468,-84.31873,95.62,NaN,,0,89.90968,,0 / 17,49004,2018-04-26 00:50:04:596,,,
12.0273,2.3533,0.8867,9.5099,2.4052,0.1122,-1.4005,-0.0806,0.727,-1.2072,1.4497,0.3256,15.847,-40.57,-7.92,-22.24,276.26,-14.19,-89.32,2,1006.18,50.51,30.453468,-84.31873,95.62,NaN,,0,89.90968,,0 / 17,49104,2018-04-26 00:50:04:696,,,
10.7619,2.2594,-0.2,9.2678,2.5259,1.9908,-0.4982,0.3531,0.1442,-0.5647,1.2739,-0.253,33.806,-36.33,-6.3,-29.17,283.09,-14.92,-77.88,2,1006.18,40.744,30.453468,-84.31873,95.62,NaN,,0,89.90968,,0 / 17,49204,2018-04-26 00:50:04:796,,,
9.4619,3.39,0.6852,9.0392,2.5733,2.812,0.2038,-0.0516,1.0832,-0.3066,0.8801,0.0237,33.806,-33.52,-5.12,-31.65,286.82,-15.21,-72.72,2,1006.18,40.744,30.453468,-84.31873,95.62,NaN,,0,89.90968,,0 / 17,49305,2018-04-26 00:50:04:897,,,
8.9892,3.0565,2.3212,8.6924,2.4085,3.8572,-0.0593,-0.3706,0.548,-0.2492,0.947,0.0412,33.806,-29.72,-4.02,-36.04,284.83,-14.34,-69.72,2,1006.18,40.744,30.453468,-84.31873,95.62,NaN,,0,89.90968,,0 / 17,49404,2018-04-26 00:50:04:996,,,
8.4938,2.93,2.789,8.0705,2.5348,4.9678,-0.0234,-0.7681,1.6409,-0.0229,1.0315,-0.1452,33.806,-24.97,-3.6,-38.86,283.95,-13.77,-62.33,2,1006.18,36.587,30.453468,-84.31873,95.62,NaN,,0,89.90968,,0 / 17,49504,2018-04-26 00:50:05:096,,,
8.3231,2.7518,3.1009,7.7785,2.517,5.4217,-0.319,-0.3313,1.6091,-0.1732,0.6596,0.0838,33.806,-20.96,-2.85,-41.17,289.21,-14.87,-55.12,2,1006.18,36.587,30.453468,-84.31873,95.62,NaN,,0,89.90968,,0 / 17,49604,2018-04-26 00:50:05:196,,,
7.7597,2.2919,4.6313,7.4301,2.4095,5.9349,-0.1366,-0.7559,0.7503,0.0492,0.5564,0.1699,33.806,-20.22,-2.27,-41.19,291.52,-14.43,-53.07,2,1006.18,36.587,30.453468,-84.31873,95.62,NaN,,0,89.90968,,0 / 17,49704,2018-04-26 00:50:05:296,,,
7.0983,3.0119,5.2107,7.2152,2.4181,6.1911,0.4425,-0.3011,0.9958,-0.025,0.4347,0.0896,33.806,-17.44,-2.09,-42.26,290.99,-14.27,-49.37,2,1006.18,30.677,30.453468,-84.31873,95.62,NaN,,0,89.90968,,0 / 17,49804,2018-04-26 00:50:05:396,,,
6.6937,2.7097,5.423,7.2876,1.9828,6.2606,-0.5029,0.3539,0.3763,-0.3461,-0.0726,0.1984,33.806,-16.52,-1,-42.73,288.7,-11.66,-49.33,2,1006.17,30.677,30.453468,-84.31873,95.62,NaN,,0,89.90968,,0 / 17,49905,2018-04-26 00:50:05:497,,,
7.7537,1.8549,6.0719,7.3227,1.6275,6.3218,-0.2653,0.2989,0.4182,-0.1925,0.1362,0.4195,45.427,-16.94,-0.02,-42.05,287.92,-9.55,-49.2,2,1006.17,30.677,30.453468,-84.31873,95.62,NaN,,0,89.90968,,0 / 17,50004,2018-04-26 00:50:05:596,,,
7.5436,1.212,6.4725,6.9592,2.2291,6.545,0.526,0.0574,0.2906,0.1841,0.4727,-0.4094,45.427,-15.6,-1.25,-43.07,285.43,-9.7,-48,2,1006.17,30.677,30.453468,-84.31873,95.62,NaN,,0,89.90968,,0 / 17,50104,2018-04-26 00:50:05:696,,,
6.6149,1.8669,6.9067,6.3237,2.7796,6.9657,-0.3264,1.3683,0.177,0.3909,0.5973,-0.3603,45.427,-11.47,-4.19,-44.5,284.3,-14.27,-44.13,2,1006.17,47.83,30.453468,-84.31873,95.62,NaN,,0,89.90968,,0 / 17,50204,2018-04-26 00:50:05:796,,,
6.9611,2.9505,7.4068,5.8349,2.9712,7.3049,-0.4522,-0.2632,-1.4032,-1.14,0.5403,-0.9491,45.427,-8.45,-4.39,-44.35,290.93,-17.63,-38.62,2,1006.16,47.83,30.453468,-84.31873,95.62,NaN,,0,89.90968,,0 / 17,50304,2018-04-26 00:50:05:896,,,
5.8079,-0.3195,11.774,4.5285,2.9233,8.1965,1.0834,3.7641,0.6909,-1.0429,0.7054,-1.6619,45.427,-6.4,-1.2,-46.07,295.22,-15.74,-35.19,2,1006.15,47.83,30.453468,-84.31873,95.62,NaN,,0,89.90968,,0 / 17,50405,2018-04-26 00:50:05:997,,,
-0.6024,-2.3626,12.0595,2.8855,3.2222,8.805,4.7793,4.2463,-2.8453,0.4478,1.3634,-1.014,45.427,4.36,0.51,-45.38,309.3,-19.18,-18.14,2,1006.15,47.351,30.453468,-84.31873,95.62,NaN,,0,89.90968,,0 / 17,50505,2018-04-26 00:50:06:097,,,
-0.7039,-0.5832,11.2966,0.8247,4.2233,8.8159,4.5972,6.0508,-2.0604,0.6071,1.2742,-1.4481,45.427,12.02,-3.05,-44.97,314.93,-25.5,-5.34,2,1006.16,47.351,30.453468,-84.31873,95.62,NaN,,0,89.90968,,0 / 17,50604,2018-04-26 00:50:06:196,,,
-2.5613,-1.5126,8.2237,-1.514,4.7109,8.4706,-5.2167,4.2764,5.1453,0.8473,1.327,-1.6672,25.355,17.32,-4,-42.81,326.05,-28.93,6.31,2,1006.16,47.351,30.453468,-84.31873,95.62,NaN,,0,89.90968,,0 / 17,50704,2018-04-26 00:50:06:296,,,
4.0746,0.5606,3.3863,-2.0193,3.061,9.0988,3.8172,5.4135,-5.3532,-2.9066,-1.3353,-5.9917,25.355,17.36,4.28,-42.96,338.03,-18.18,12.51,2,1006.17,62.12,30.453468,-84.31873,95.62,NaN,,0,89.90968,,0 / 17,50804,2018-04-26 00:50:06:396,,,
-9.7213,-0.47,16.3799,-1.8169,-0.2005,9.6382,8.2247,-1.7758,-6.2866,-1.311,-0.7817,-5.5394,25.355,3.76,22.58,-41.5,10.62,-4.76,12.45,2,1006.17,62.12,30.453468,-84.31873,95.62,NaN,,0,89.90968,,0 / 17,50904,2018-04-26 00:50:06:496,,,
-8.74,4.0678,14.5591,-1.2314,-0.2958,9.7279,6.4231,-4.999,-2.6817,0.4815,-1.0597,-3.6179,25.355,-10.31,20.81,-40.98,37.27,1.73,7.21,2,1006.19,62.12,30.453468,-84.31873,95.62,NaN,,0,89.90968,,0 / 17,51004,2018-04-26 00:50:06:596,,,
