ACCELEROMETER X (m/s²),ACCELEROMETER Y (m/s²),ACCELEROMETER Z (m/s²),GRAVITY X (m/s²),GRAVITY Y (m/s²),GRAVITY Z (m/s²),LINEAR ACCELERATION X (m/s²),LINEAR ACCELERATION Y (m/s²),LINEAR ACCELERATION Z (m/s²),GYROSCOPE X (rad/s),GYROSCOPE Y (rad/s),GYROSCOPE Z (rad/s),LIGHT (lux),MAGNETIC FIELD X (μT),MAGNETIC FIELD Y (μT),MAGNETIC FIELD Z (μT),ORIENTATION Z (azimuth °),ORIENTATION X (pitch °),ORIENTATION Y (roll °),PROXIMITY (i),ATMOSPHERIC PRESSURE (hPa),SOUND LEVEL (dB),LOCATION Latitude : ,LOCATION Longitude : ,LOCATION Altitude ( m),LOCATION Altitude-google ( m),LOCATION Altitude-atmospheric pressure ( m),LOCATION Speed ( Kmh),LOCATION Accuracy ( m),LOCATION ORIENTATION (°),Satellites in range,Time since start in ms ,YYYY-MO-DD HH-MI-SS_SSS,,,LABEL_DATA
1.1054,6.7914,4.8514,0.1099,7.5154,6.3042,-0.9713,0.603,1.246,-0.9184,-0.7279,-0.7769,8.452,-19.53,-26.54,-12.68,106.16,-52.15,-2.5,2,1013.54,64.665,30.453472,-84.31873,165.6,154.7645462,,0,55.329033,,0 / 18,5,2018-04-21 23:50:40:189,,,
0.6547,7.0141,7.9412,0.2035,6.9942,6.8758,-0.917,0.0527,-2.2867,-0.9534,-0.6918,-0.2991,8.452,-19.01,-25.83,-14.44,111.8,-46.2,-2.14,2,1013.53,37.348,30.453472,-84.31873,165.6,154.7645462,,0,55.329033,,0 / 18,105,2018-04-21 23:50:40:289,,,
-0.2757,7.3271,6.8949,0.2523,7.0814,6.7843,-0.2737,0.3885,-0.5095,0.2199,-0.3273,-0.2225,8.452,-18.32,-26.64,-13.73,114.89,-46.21,-2.13,2,1013.53,37.348,30.453472,-84.31873,165.6,154.7645462,,0,55.329033,,0 / 18,206,2018-04-21 23:50:40:390,,,
1.004,8.0517,6.2195,0.2911,7.301,6.5457,-1.5291,-0.3014,-0.4839,0.2837,-0.1401,-0.1119,8.452,-17.69,-27.3,-12.71,115.38,-47.24,-2.09,2,1013.53,37.348,30.453472,-84.31873,165.6,154.7645462,,0,55.329033,,0 / 18,305,2018-04-21 23:50:40:489,,,
0.9809,6.5521,7.34,0.1369,7.5176,6.301,-0.8554,-0.09,0.1168,0.4593,0.1058,-0.159,8.452,-16.16,-28.48,-10.47,122.52,-50.02,-1.24,2,1013.52,30.114,30.453472,-84.31873,165.6,154.7645462,,0,55.329033,,0 / 18,406,2018-04-21 23:50:40:590,,,
-0.3102,7.3808,7.1743,0.3132,8.058,5.5863,0.9052,0.3245,-1.2919,0.7993,-0.2259,-0.0555,8.452,-16.28,-30.83,-6.19,127.56,-55.23,-3.21,2,1013.52,30.114,30.453472,-84.31873,165.6,154.7645462,,0,55.329033,,0 / 18,505,2018-04-21 23:50:40:689,,,
-0.6786,9.0034,4.6181,0.4511,8.5485,4.7912,0.478,-1.0357,0.4563,0.7829,-0.3518,-0.0447,8.452,-16.1,-30.8,-2.15,127.7,-60.62,-5.38,2,1013.51,30.114,30.453472,-84.31873,165.6,154.7645462,,0,55.329033,,0 / 18,606,2018-04-21 23:50:40:790,,,
-0.4736,8.4803,4.2428,0.3137,8.6341,4.6465,0.8052,0.2684,0.7892,0.0662,0.2403,-0.0967,8.452,-16.36,-31.61,-1.82,128.27,-61.66,-3.86,2,1013.49,31.319,30.453472,-84.31873,165.6,154.7645462,,0,55.329033,,0 / 18,705,2018-04-21 23:50:40:889,,,
0.6885,7.3071,4.1229,0.3542,8.6552,4.6042,-0.4667,1.4117,0.2577,0.1469,-0.3275,-0.124,9.508,-15.05,-32.01,0.24,133.47,-62.08,-3.42,2,1013.49,31.319,30.453472,-84.31873,165.6,154.7645462,,0,55.329033,,0 / 18,805,2018-04-21 23:50:40:989,,,
1.3045,7.8891,4.0147,0.6978,8.4119,4.9989,-0.303,-0.4061,0.6668,-0.5869,0.0964,0.5929,9.508,-17.69,-29.99,-2.98,121.7,-59.03,-7.95,2,1013.5,31.319,30.453472,-84.31873,165.6,154.7645462,,0,55.329033,,0 / 18,906,2018-04-21 23:50:41:090,,,
0.8703,6.9955,5.2887,0.8458,7.8126,5.8723,0.518,3.6838,3.5957,-0.6823,-0.521,0.1919,9.508,-18.19,-29.67,-5.94,119.26,-56.24,-8.83,2,1013.5,36.5,30.453472,-84.31873,165.6,154.7645462,,0,55.329033,,0 / 18,1005,2018-04-21 23:50:41:189,,,
0.514,0.6667,0.4928,4.3337,7.0486,5.27,1.1054,5.4105,6.0746,-0.6016,-3.0265,1.1818,9.508,-22.2,-28.15,-5.51,113.97,-50.35,-16.54,2,1013.51,36.5,30.453472,-84.31873,165.6,154.7645462,,0,55.329033,,0 / 18,1105,2018-04-21 23:50:41:289,,,
0.9151,-3.4345,2.7053,7.5048,5.508,3.0946,5.5112,8.9267,-4.558,0.156,-5.8309,4.8405,9.508,-33.7,-18.65,10.43,90.55,-34.16,-67.59,2,1013.5,36.5,30.453472,-84.31873,165.6,154.7645462,,0,55.329033,,0 / 18,1206,2018-04-21 23:50:41:390,,,
21.3066,1.0342,-5.6712,9.7138,0.3771,-1.3177,-10.4322,0.192,6.4237,2.2669,-2.7303,4.8062,9.508,-36.43,5.76,29.95,73.18,-2.2,-97.73,2,1013.48,36.5,30.453472,-84.31873,165.6,154.7645462,,0,55.329033,,0 / 18,1305,2018-04-21 23:50:41:489,,,
19.8994,-0.3905,-6.2222,8.8798,-1.4686,-3.9025,-9.9763,-0.1305,3.7673,3.6667,-3.8493,1.5713,9.508,-28.73,17.85,38.54,64.48,8.61,-113.72,2,1013.48,42.208,30.453472,-84.31873,165.6,154.7645462,,0,55.329033,,0 / 18,1406,2018-04-21 23:50:41:590,,,
9.9184,-0.6524,-7.9417,8.7184,-2.9961,-3.3539,0.6045,-3.1104,2.252,-0.5598,2.2999,1.5951,7.395,-25.92,27.21,39.27,59.59,16.85,-115.22,0,1013.5,42.208,30.453472,-84.31873,165.6,154.7645462,,0,55.329033,,0 / 18,1505,2018-04-21 23:50:41:689,,,
9.5695,-2.0109,-3.8193,8.9825,-2.6445,-2.9254,-1.1018,-2.0149,1.506,-0.4856,1.046,-0.207,7.395,-27.86,24.62,37.49,65.63,17.97,-107.92,0,1013.5,42.208,30.453472,-84.31873,165.6,154.7645462,,0,55.329033,,0 / 18,1606,2018-04-21 23:50:41:790,,,
9.5842,-2.6092,-1.2045,9.1585,-2.2276,-2.7194,0.119,0.5438,1.2286,-0.0265,1.2692,-0.7737,7.395,-28.34,23.47,37.71,66.75,15.64,-108.04,0,1013.53,42.687,30.453472,-84.31873,165.6,154.7645462,,0,55.329033,,0 / 18,1706,2018-04-21 23:50:41:890,,,
8.4991,-3.9239,-1.5647,9.4378,-2.3681,-1.2471,1.6971,1.6375,0.0281,0.413,0.992,-0.0904,7.395,-32.4,21.17,33.5,64.2,11.25,-100.91,0,1013.61,42.687,30.453472,-84.31873,165.6,154.7645462,,0,55.329033,,0 / 18,1805,2018-04-21 23:50:41:989,,,
8.4687,-4.9727,-1.1285,9.0885,-3.6742,-0.3687,1.9077,1.256,0.032,0.8131,0.9645,2.6687,7.395,-33.01,30.39,27.07,59.58,22,-92.32,0,1013.58,42.687,30.453472,-84.31873,165.6,154.7645462,,0,55.329033,,0 / 18,1906,2018-04-21 23:50:42:090,,,
7.3811,-3.7198,0.2847,7.2185,-6.6347,-0.3323,2.3099,1.0128,-0.0992,-0.01,0.0298,3.007,7.395,-24.52,40.59,28.49,65.12,42.56,-92.64,0,1013.58,54.853,30.453472,-84.31873,165.6,154.7645462,,0,55.329033,,0 / 18,2007,2018-04-21 23:50:42:191,,,
5.3484,-5.8569,-0.9838,6.5005,-7.3253,-0.5645,-2.0574,2.3645,-0.4041,-0.369,0.0446,1.2443,7.395,-22.27,41.39,29.01,71.5,48.31,-94.96,0,1013.58,54.853,30.453472,-84.31873,165.6,154.7645462,,0,55.329033,,0 / 18,2106,2018-04-21 23:50:42:290,,,
8.1065,-10.5094,-0.476,6.3259,-7.4784,-0.5409,-2.4699,2.8462,-0.3227,0.0725,0.0807,-0.5736,0.473,-20.29,44.67,29.22,66.1,49.67,-94.89,0,1013.58,54.853,30.453472,-84.31873,165.6,154.7645462,,0,55.329033,,0 / 18,2206,2018-04-21 23:50:42:390,,,
5.6746,-7.0183,-0.724,6.4077,-7.3396,-1.1435,1.2437,-0.0307,-0.1274,-0.2428,-0.4377,0.3278,0.473,-19.49,43.39,30.18,68.69,49.88,-95.99,0,1013.81,50.291,30.453472,-84.31873,165.6,154.7645462,,0,55.329033,,0 / 18,2306,2018-04-21 23:50:42:490,,,
5.4638,-0.159,-1.3388,6.9587,-6.6778,-1.7943,1.1424,10.1177,-2.2126,0.2803,-0.6091,-1.3117,0.473,-19.61,41.51,32.99,73.11,48.43,-100.12,0,1013.99,50.291,30.453472,-84.31873,165.6,154.7645462,,0,55.329033,,0 / 18,2406,2018-04-21 23:50:42:590,,,
8.6211,-10.3075,-1.9636,6.5394,-7.2868,-0.6126,-2.5097,4.3968,1.4349,1.3938,0.8742,1.0677,0.473,-20.34,43.29,29.19,60.24,43.4,-98.4,0,1013.99,50.291,30.453472,-84.31873,165.6,154.7645462,,0,55.329033,,0 / 18,2506,2018-04-21 23:50:42:690,,,
5.9831,-6.4619,-0.3745,6.4605,-7.2957,-1.1274,-0.1207,-3.3748,0.3498,-0.662,0.0605,-0.0381,0.473,-19.29,42.12,32.09,70.39,48.05,-99.9,0,1013.85,50.291,30.453472,-84.31873,165.6,154.7645462,,0,55.329033,,0 / 18,2606,2018-04-21 23:50:42:790,,,
7.1001,-7.2146,-1.1141,6.4681,-7.2668,-1.2619,-1.2359,0.3695,0.0471,0.1361,-0.1719,-0.0122,0.473,-18.5,43.06,31.36,67.09,47.8,-101.04,0,1013.83,52.64,30.453472,-84.31873,165.6,154.7645462,,0,55.329033,,0 / 18,2706,2018-04-21 23:50:42:890,,,
5.5527,-8.7213,-0.5716,6.5258,-7.1488,-1.5949,1.1983,1.1156,-0.6012,-0.0471,-0.4514,-0.1243,0.473,-18.05,42.54,31.1,67.46,47.72,-102.59,0,1013.83,52.64,30.453472,-84.31873,165.6,154.7645462,,0,55.329033,,0 / 18,2806,2018-04-21 23:50:42:990,,,
5.8858,-7.2343,-1.2384,6.5837,-7.0548,-1.7666,0.0336,-0.5488,-0.01,-0.858,0.4394,0.0134,1.183,-18.97,40.39,34.15,73.51,45.98,-105.02,0,1013.73,52.64,30.453472,-84.31873,165.6,154.7645462,,0,55.329033,,0 / 18,2906,2018-04-21 23:50:43:090,,,
6.6277,-6.8145,-2.5338,6.5511,-6.8017,-2.6563,0.0445,0.2131,0.0526,-0.8372,-0.2905,-0.086,1.183,-18.33,37.3,36.84,78.79,43.9,-112.07,0,1013.59,43.647,30.453472,-84.31873,165.6,154.7645462,,0,55.329033,,0 / 18,3007,2018-04-21 23:50:43:191,,,
6.9568,-7.298,-4.8482,6.4717,-6.6361,-3.2118,-1.3481,-1.0329,1.8483,-0.9095,-0.4588,-0.026,1.183,-17.87,36.09,37.69,81.06,43.9,-112.07,0,1013.59,43.647,30.453472,-84.31873,165.6,154.7645462,,0,55.329033,,0 / 18,3106,2018-04-21 23:50:43:290,,,
6.6061,-5.0116,-4.653,6.2002,-6.4984,-3.9452,-0.6374,-1.3743,1.1197,-0.1271,-0.7475,-0.0513,1.183,-15.66,34.35,41.26,84.66,41.56,-120.29,0,1013.54,43.647,30.453472,-84.31873,165.6,154.7645462,,0,55.329033,,0 / 18,3205,2018-04-21 23:50:43:389,,,
4.8614,-5.3798,-3.3587,6.1724,-6.5006,-3.9849,1.5631,-0.1052,-0.3429,0.611,-0.5923,-0.3939,1.183,-14.13,36.03,40.05,79.56,41.5,-122.85,0,1013.53,30.95,30.453472,-84.31873,165.6,154.7645462,,0,55.329033,,0 / 18,3306,2018-04-21 23:50:43:490,,,
5.8873,-6.2941,-4.1677,6.2872,-6.35,-4.0479,0.426,0.0022,1.2304,-0.487,0.4325,-0.2365,1.183,-13.02,35.72,39.96,76.57,40.34,-122.77,0,1013.53,30.95,30.453472,-84.31873,165.6,154.7645462,,0,55.329033,,0 / 18,3406,2018-04-21 23:50:43:590,,,Out
7.4843,-4.5748,-7.0515,6.3585,-6.3783,-3.8888,-1.2806,-1.6377,2.408,-0.2052,0.3724,0.0496,1.183,-14.76,34.73,40.26,77.09,38.92,-121.8,0,1013.71,30.95,30.453472,-84.31873,165.6,154.7645462,,0,55.329033,,0 / 18,3506,2018-04-21 23:50:43:690,,,Out
5.2783,-6.8983,-5.0619,6.2177,-6.6894,-3.5816,1.9693,0.9558,0.9448,0.984,-0.209,0.0207,1.183,-13.87,36.78,40.28,79.4,42.99,-119.94,0,1013.71,29.965,30.453472,-84.31873,165.6,154.7645462,,0,55.329033,,0 / 18,3606,2018-04-21 23:50:43:790,,,Out
5.0282,-10.1938,-2.8103,6.2646,-6.9071,-3.0468,0.9116,3.4503,-0.1595,0.432,0.3299,0.0909,1.183,-13.92,40.61,37.46,71.93,44.76,-115.94,0,1013.62,29.965,30.453472,-84.31873,165.6,154.7645462,,0,55.329033,,0 / 18,3706,2018-04-21 23:50:43:890,,,Out
5.7863,-5.043,-1.0982,6.5194,-6.7082,-2.9553,-1.714,0.1283,-1.0584,-0.1967,0.7574,-0.2513,1.183,-17.2,38.72,37.61,75.49,43.14,-114.39,0,1013.69,29.965,30.453472,-84.31873,165.6,154.7645462,,0,55.329033,,0 / 18,3806,2018-04-21 23:50:43:990,,,Out
6.6645,-6.1107,-0.9764,7.0524,-6.3958,-2.3652,0.9696,1.0175,-0.7228,0.6243,0.2305,-0.3486,1.183,-19.41,38.28,37.05,75.44,42.24,-111.48,0,1013.68,29.965,30.453472,-84.31873,165.6,154.7645462,,0,55.329033,,0 / 18,3906,2018-04-21 23:50:44:090,,,Out
6.7049,-5.5272,-2.0031,7.1866,-6.5426,-1.3357,0.4344,-0.7169,0.3416,0.2144,0.9769,0.1353,1.183,-20.97,39.11,34.03,69.73,41.28,-105.02,0,1013.68,43.601,30.453472,-84.31873,165.6,154.7645462,,0,55.329033,,0 / 18,4006,2018-04-21 23:50:44:190,,,Out
7.8648,-5.3127,-2.026,7.1002,-6.7103,-0.8918,-0.5481,-0.2668,0.8151,0.2949,0.5529,0.5385,1.183,-22.82,41.24,31.04,67.32,43.16,-97.16,0,1013.81,43.601,30.453472,-84.31873,165.6,154.7645462,,0,55.329033,,0 / 18,4105,2018-04-21 23:50:44:289,,,Out
8.2729,-5.6539,-1.2023,6.9799,-6.8888,-0.2475,-1.2378,0.1625,1.5412,0.0394,0.7068,0.2473,1.183,-23.13,41.12,29.6,68.45,44.97,-94.72,0,1013.81,43.601,30.453472,-84.31873,165.6,154.7645462,,0,55.329033,,0 / 18,4205,2018-04-21 23:50:44:389,,,Out
10.2446,-7.4773,-1.9471,6.9964,-6.8764,-0.0519,-4.9115,0.2824,1.8542,-0.3045,0.3191,0.0338,1.183,-25.45,41.41,28.18,67.41,44.5,-90.43,0,1013.81,53.862,30.453472,-84.31873,165.6,154.7645462,,0,55.329033,,0 / 18,4307,2018-04-21 23:50:44:491,,,Out
5.2478,-8.7309,0.839,7.1413,-6.5349,-1.5915,3.1562,3.3506,-1.2232,-0.1297,-1.4371,-0.3308,1.183,-22.82,39.64,32.02,68.67,41.77,-102.56,0,1013.5,53.862,30.453472,-84.31873,165.6,154.7645462,,0,55.329033,,0 / 18,4405,2018-04-21 23:50:44:589,,,Out
7.8031,-6.7264,-2.7066,6.8038,-6.1,-3.5685,-0.6163,0.2104,-0.4489,-1.4515,-0.907,0.1015,1.183,-18.4,34.15,39.37,78.83,40.24,-111.68,0,1013.33,53.862,30.453472,-84.31873,165.6,154.7645462,,0,55.329033,,0 / 18,4505,2018-04-21 23:50:44:689,,,Out
5.1027,-5.7684,-3.0121,6.6311,-6.0185,-4.0053,1.4696,-2.2174,-0.6278,0.4821,-0.8156,-0.0186,1.183,-17.59,32.3,40.72,83.25,38.45,-117.68,0,1013.33,51.121,30.453472,-84.31873,165.6,154.7645462,,0,55.329033,,0 / 18,4605,2018-04-21 23:50:44:789,,,Out
2.6513,-3.063,-4.1658,6.5562,-6.3702,-3.56,3.9517,-3.5273,0.4717,0.7177,-0.3014,0.0787,1.183,-14.84,34.48,40.05,79.77,39.54,-121.67,0,1013.31,51.121,30.453472,-84.31873,165.6,154.7645462,,0,55.329033,,0 / 18,4706,2018-04-21 23:50:44:890,,,Out
7.4189,-7.9785,-3.989,6.7236,-6.2469,-3.4648,-5.0781,5.2078,4.1862,-0.1547,-0.1798,-0.2079,1.183,-16.84,36.07,39.29,75.89,39.55,-117.26,0,1013.31,51.121,30.453472,-84.31873,165.6,154.7645462,,0,55.329033,,18-Jul,4806,2018-04-21 23:50:44:990,,,Out
7.3447,-9.055,-4.5363,6.4523,-6.2272,-3.9781,0.8031,2.8937,0.1929,-0.5676,-0.4907,-0.1091,1.183,-15.9,34.47,40.49,77.71,38.19,-119.94,0,1013.51,50.165,30.453472,-84.31873,165.6,154.7645462,,0,55.329033,,18-Jul,4905,2018-04-21 23:50:45:089,,,Out
4.8449,-8.5405,-2.746,6.3019,-6.491,-3.7934,0.5092,0.2008,-2.9466,-0.207,0.5924,0.1173,1.183,-14.14,36.07,40.25,78.7,41.43,-121.05,0,1013.56,50.165,30.453472,-84.31873,165.6,154.7645462,,0,55.329033,,18-Jul,5005,2018-04-21 23:50:45:189,,,Out
8.7096,-6.4052,-1.1477,6.736,-6.5497,-2.822,-1.1094,-1.5101,-1.8387,0.5467,0.6539,-0.3736,1.183,-18,36.75,38.47,76.67,41.89,-112.73,0,1013.56,50.165,30.453472,-84.31873,165.6,154.7645462,,0,55.329033,,18-Jul,5105,2018-04-21 23:50:45:289,,,Out
7.0678,-7.8262,-0.6295,7.0895,-6.6244,-1.4465,-0.2273,1.0445,-0.7084,0.8521,0.9442,-0.0494,1.183,-20.92,39.01,33.98,70.55,42.48,-101.53,0,1013.66,50.165,30.453472,-84.31873,165.6,154.7645462,,0,55.329033,,18-Jul,5206,2018-04-21 23:50:45:390,,,Out
7.4674,-6.8205,-1.3451,7.063,-6.7198,-1.0927,0.3491,-1.6559,1.1179,-0.176,0.6844,0.3656,1.183,-23.33,38.84,32.55,72.12,43.24,-98.79,0,1013.77,50.67,30.453472,-84.31873,165.6,154.7645462,,0,55.329033,,18-Jul,5306,2018-04-21 23:50:45:490,,,Out
8.0896,-5.5517,-1.5769,6.8821,-6.9563,-0.6946,-1.2216,-1.4113,0.6857,-0.1222,0.5756,0.3167,1.183,-22.99,40.95,30.77,69.38,44.49,-97.49,0,1013.77,50.67,30.453472,-84.31873,165.6,154.7645462,,0,55.329033,,18-Jul,5407,2018-04-21 23:50:45:591,,,Out
7.3958,-6.407,-1.9408,6.895,-6.9553,-0.5648,-2.9452,-1.0603,1.6101,-0.0948,0.3669,0.0645,1.183,-24.01,40.6,29.47,69.13,45.15,-94.68,0,1013.82,50.67,30.453472,-84.31873,165.6,154.7645462,,0,55.329033,,18-Jul,5506,2018-04-21 23:50:45:690,,,Out
9.9764,-7.2995,0.3238,7.0103,-6.7634,-1.1607,1.4442,1.9922,-1.5637,-0.3755,-2.0007,-0.6212,1.183,-24.36,40.66,30.18,70.35,45.48,-94.49,0,1013.82,45.685,30.453472,-84.31873,165.6,154.7645462,,0,55.329033,,18-Jul,5605,2018-04-21 23:50:45:789,,,Out
4.7486,-9.7759,-0.1656,6.881,-6.5379,-2.4786,1.2574,3.6844,-2.3735,-1.2721,-1.6183,-0.0804,1.183,-19.44,36.65,36.55,75.54,41.79,-109.81,0,1013.57,45.685,30.453472,-84.31873,165.6,154.7645462,,0,55.329033,,18-Jul,5706,2018-04-21 23:50:45:890,,,Out
6.1613,-6.9494,-2.8331,6.7733,-5.7623,-4.1419,0.7619,0.4227,-0.9647,-0.398,-0.8891,-0.2022,1.183,-17.38,31.78,40.71,79.55,35.97,-121.45,0,1013.41,45.685,30.453472,-84.31873,165.6,154.7645462,,0,55.329033,,0 / 18,5808,2018-04-21 23:50:45:992,,,Out
4.8794,-5.4505,-3.7063,6.3357,-6.0977,-4.349,2.2347,-0.355,-1.0805,0.7967,-0.95,-0.0094,1.183,-13.92,33.38,41.88,81.69,38.43,-124.47,0,1013.35,53.026,30.453472,-84.31873,165.6,154.7645462,,0,55.329033,,0 / 18,5906,2018-04-21 23:50:46:090,,,Out
2.8321,-3.6234,-3.6318,6.4135,-6.2803,-3.9574,-2.9684,0.9368,0.533,0.6815,0.567,-0.0454,1.183,-13.52,34.23,41.91,81.24,39.81,-121.68,0,1013.35,53.026,30.453472,-84.31873,165.6,154.7645462,,0,55.329033,,0 / 18,6005,2018-04-21 23:50:46:189,,,Out
7.5177,-7.8792,-5.5583,6.5785,-6.19,-3.8267,-0.7289,1.3522,2.4263,0.2467,-0.1791,-0.216,1.183,-14.56,36.11,39.48,75.52,40.03,-119.21,0,1013.61,53.026,30.453472,-84.31873,165.6,154.7645462,,0,55.329033,,0 / 18,6106,2018-04-21 23:50:46:290,,,Out
5.7764,-9.757,-3.1882,6.5807,-6.1141,-3.9431,1.1143,1.2366,0.3472,0.8992,-0.3546,0.0506,1.183,-14.05,36.28,40.21,73.85,38.55,-120.93,0,1013.61,52.989,30.453472,-84.31873,165.6,154.7645462,,0,55.329033,,0 / 18,6206,2018-04-21 23:50:46:390,,,Out
5.5504,-5.5139,-0.5546,7.0006,-5.8447,-3.6147,0.5487,5.2922,-1.0639,-1.8577,1.7887,-0.6021,1.183,-13.38,36.98,38.81,73.98,41.13,-118.82,0,1013.65,52.989,30.453472,-84.31873,165.6,154.7645462,,0,55.329033,,0 / 18,6306,2018-04-21 23:50:46:490,,,Out
6.9701,-4.1095,-2.1319,7.0104,-6.3188,-2.6765,-1.37,-1.9293,-1.5968,1.4176,-0.0295,0.4031,1.183,-18.32,36.14,39.47,74.84,38.76,-115.15,0,1013.96,52.989,30.453472,-84.31873,165.6,154.7645462,,0,55.329033,,0 / 18,6405,2018-04-21 23:50:46:589,,,Out
6.3306,-9.906,-1.9183,6.6983,-6.9071,-1.9135,-0.1481,2.4068,0.3638,1.404,0.47,0.6843,1.183,-17.89,42.02,34.51,69.26,44.76,-105.94,0,1014.23,52.989,30.453472,-84.31873,165.6,154.7645462,,0,55.329033,,0 / 18,6505,2018-04-21 23:50:46:689,,,
5.7628,-8.0407,-0.8882,5.9933,-7.6929,-1.0652,0.1924,-0.9297,-1.7891,0.3695,0.5153,1.0872,1.183,-16.11,45.24,32.12,68.72,51.65,-100.08,0,1014.23,59.916,30.453472,-84.31873,165.6,154.7645462,,0,55.329033,,0 / 18,6606,2018-04-21 23:50:46:790,,,
5.7066,-10.0164,-1.0609,6.4958,-7.3347,-0.4929,6.4559,5.3462,-7.6133,-1.0201,2.5303,-0.9135,1.183,-18.39,44.35,30.42,63.72,48.39,-94.34,0,1014.03,59.916,30.453472,-84.31873,165.6,154.7645462,,0,55.329033,,0 / 18,6706,2018-04-21 23:50:46:890,,,
1.8595,-7.4673,1.4025,5.0564,-8.4062,0.0726,3.0901,-1.3077,-0.3419,-2.2351,3.4921,1.4115,1.183,-23.66,40.81,27.95,88.15,58.97,-89.18,0,1014.03,59.916,30.453472,-84.31873,165.6,154.7645462,,0,55.329033,,0 / 18,6806,2018-04-21 23:50:46:990,,,
-4.9845,-5.0004,7.8112,4.1075,-8.6885,-1.9684,9.3335,-4.111,-8.2213,-4.5934,4.5755,0.7935,1.183,-30.55,36.47,26.6,120.95,62.51,-97.29,2,1013.65,54.094,30.453472,-84.31873,165.6,154.7645462,,0,55.329033,,0 / 18,6907,2018-04-21 23:50:47:091,,,
-7.0524,-10.5657,9.8381,2.7252,-9.153,-2.2432,8.949,6.6724,-7.4314,0.3528,0.483,2.8999,1.183,-30.43,39.83,23.52,181.43,68.91,-129.46,2,1013.5,54.094,30.453472,-84.31873,165.6,154.7645462,,0,55.329033,,0 / 18,7006,2018-04-21 23:50:47:190,,,
-11.2903,-21.344,0.4843,-0.2665,-9.7707,-0.836,11.3857,12.2317,-1.9688,1.2983,-1.0473,1.8035,1.183,-26.08,45.04,23.05,190.6,78.88,-139.27,2,1013.5,54.094,30.453472,-84.31873,165.6,154.7645462,,0,55.329033,,0 / 18,7106,2018-04-21 23:50:47:290,,,
-7.2331,-22.781,-4.2839,-2.372,-9.5027,0.5559,5.1431,11.876,6.4705,1.7466,-4.161,2.7177,4.226,-7.26,54.2,21.77,321.45,75.62,76.81,2,1013.64,51.317,30.453472,-84.31873,165.6,154.7645462,,0,55.329033,,0 / 18,7206,2018-04-21 23:50:47:390,,,
-0.0913,-13.6635,-5.1383,-4.835,-7.7551,3.5662,-6.0866,3.2667,6.1832,1.6754,-4.3441,3.4782,4.226,15.71,54.25,13.91,324.82,52.23,53.59,2,1013.66,51.317,30.453472,-84.31873,165.6,154.7645462,,0,55.329033,,0 / 18,7306,2018-04-21 23:50:47:490,,,
-0.986,-3.8883,0.8914,-5.4049,-7.1417,4.0025,-4.1672,-3.4124,2.3416,-0.4071,-0.5212,1.041,4.226,20.62,53.14,13.62,319.54,48.82,59.34,2,1013.66,51.317,30.453472,-84.31873,165.6,154.7645462,,0,55.329033,,0 / 18,7406,2018-04-21 23:50:47:590,,,
-4.9826,-4.234,1.6679,-5.0638,-7.0447,4.5789,1.0336,-2.3868,4.0317,0.2911,-1.23,-1.0144,4.226,24.25,51.79,9.98,320.2,45.9,47.88,2,1013.42,53.824,30.453472,-84.31873,165.6,154.7645462,,0,55.329033,,0 / 18,7506,2018-04-21 23:50:47:690,,,
-7.7374,-5.6446,2.1938,-2.9435,-7.8247,5.1329,4.0267,-2.388,3.5303,-0.6467,-2.6117,-0.8566,4.226,19.65,54.02,5.66,326.18,49.95,36.5,2,1013.47,53.824,30.453472,-84.31873,165.6,154.7645462,,0,55.329033,,0 / 18,7605,2018-04-21 23:50:47:789,,,
-5.3044,-6.3363,3.9727,-3.0728,-8.0554,4.6803,-1.3114,-1.3417,2.5732,-1.6943,-2.2351,3.0197,4.226,21.74,53.36,4.92,321.06,52.9,29.83,2,1013.47,53.824,30.453472,-84.31873,165.6,154.7645462,,0,55.329033,,0 / 18,7706,2018-04-21 23:50:47:890,,,
-3.8558,-7.9748,2.5097,-4.5029,-7.0209,5.164,1.9412,1.3611,2.255,-0.8819,-2.762,3.5752,4.226,35.34,42.24,2.39,290.32,50.16,41.73,2,1013.4,53.824,30.453472,-84.31873,165.6,154.7645462,,0,55.329033,,0 / 18,7806,2018-04-21 23:50:47:990,,,
-6.3549,-10.5261,2.5141,-3.14,-6.9648,6.1537,3.9049,2.8946,3.1257,-0.5879,-3.6528,1.2755,10.564,36.4,36.33,-10.33,282.05,45.76,31.93,2,1013.46,56.809,30.453472,-84.31873,165.6,154.7645462,,0,55.329033,,0 / 18,7905,2018-04-21 23:50:48:089,,,
-2.1967,-9.9986,3.8136,-3.1399,-7.1499,5.9376,-2.3057,-0.1962,2.2431,-1.138,-1.3929,1.1467,10.564,35.44,31.94,-18.83,264.16,46.79,27.87,2,1013.46,56.809,30.453472,-84.31873,165.6,154.7645462,,0,55.329033,,0 / 18,8005,2018-04-21 23:50:48:189,,,
-1.6655,-6.1159,3.3143,-1.9822,-8.0414,5.2577,-0.2342,-3.523,2.4298,-0.8847,-2.3363,-0.1563,10.564,32.47,32.5,-22.64,259.73,48.77,23.36,2,1013.51,56.809,30.453472,-84.31873,165.6,154.7645462,,0,55.329033,,0 / 18,8106,2018-04-21 23:50:48:290,,,
-15.086,-8.7861,3.6822,-2.7498,-8.6895,3.6287,21.1192,4.6821,-0.5578,-2.914,0.2557,3.9171,10.564,31.03,38.25,-19.16,226.95,62.35,37.15,2,1013.51,57.897,30.453472,-84.31873,165.6,154.7645462,,0,55.329033,,0 / 18,8207,2018-04-21 23:50:48:391,,,
-6.5117,-7.2383,8.7243,-5.4029,-6.8219,4.5284,1.9195,-0.1256,-3.155,0.1165,-2.9899,3.169,10.564,34.97,26.75,-22.33,182.35,53.38,56.88,0,1013.47,57.897,30.453472,-84.31873,165.6,154.7645462,,0,55.329033,,0 / 18,8306,2018-04-21 23:50:48:490,,,
-8.1793,-7.8607,1.721,-5.7328,-5.9452,5.294,2.8418,2.2108,7.1962,0.2844,-1.5837,1.991,10.564,32.69,15.39,-28.56,184.22,37.3,47.28,0,1013.73,57.897,30.453472,-84.31873,165.6,154.7645462,,0,55.329033,,0 / 18,8406,2018-04-21 23:50:48:590,,,
-3.5601,-3.2563,8.1552,-3.7456,-4.5306,7.8537,1.618,-1.7265,-1.8546,0.6146,-3.2767,0.7428,10.564,22.19,12.13,-36.38,153.51,32.46,39.77,2,1013.55,58.981,30.453472,-84.31873,165.6,154.7645462,,0,55.329033,,0 / 18,8506,2018-04-21 23:50:48:690,,,
-4.3744,-0.3101,9.362,-3.577,-3.8916,8.2642,2.8011,-1.2999,0.3585,0.4226,-0.5275,1.2687,2.113,10.59,6.02,-40.66,160.8,23.65,20.41,2,1013.55,58.981,30.453472,-84.31873,165.6,154.7645462,,0,55.329033,,0 / 18,8607,2018-04-21 23:50:48:791,,,
-4.1705,-1.5811,10.3589,-4.1309,-4.3181,7.7798,1.4202,0.0666,-1.0719,-0.1147,1.3756,0.2345,2.113,12.59,10.16,-40.93,141.23,26.11,27.97,2,1013.53,58.981,30.453472,-84.31873,165.6,154.7645462,,0,55.329033,,0 / 18,8706,2018-04-21 23:50:48:890,,,
-5.2416,-1.8019,6.7853,-5.8687,-2.3596,7.4985,0.7962,-0.3276,3.2399,1.6497,1.3036,1.1198,2.113,18.48,0.85,-35.59,136.75,13.92,38.05,2,1013.53,52.086,30.453472,-84.31873,165.6,154.7645462,,0,55.329033,,0 / 18,8806,2018-04-21 23:50:48:990,,,
-7.4476,-2.0098,3.2604,-6.0744,-1.7824,7.4941,0.6718,-0.3559,3.4808,0.3877,-0.6324,-0.0446,2.113,20.97,-2.51,-35.11,150.92,10.47,39.03,2,1013.52,52.086,30.453472,-84.31873,165.6,154.7645462,,0,55.329033,,0 / 18,8906,2018-04-21 23:50:49:090,,,
-5.2126,-1.7968,6.6723,-4.3144,-2.0646,8.5651,0.2049,-1.1604,1.4417,0.2392,-2.5722,0.7952,2.113,14.57,-1.18,-37.44,160.84,12.15,26.74,2,1013.54,52.086,30.453472,-84.31873,165.6,154.7645462,,0,55.329033,,0 / 18,9006,2018-04-21 23:50:49:190,,,
-1.8393,3.2395,10.322,-1.376,-2.4331,9.4033,-0.019,-5.6151,-0.8087,-0.3654,-2.7261,0.1233,2.113,0.82,-0.65,-41.25,127.81,11.05,16.99,2,1013.54,52.086,30.453472,-84.31873,165.6,154.7645462,,0,55.329033,,0 / 18,9106,2018-04-21 23:50:49:290,,,
-0.9063,0.9049,11.266,0.0912,-3.1672,9.2842,-0.5813,-3.73,-3.2027,-0.9575,-1.3812,-1.9613,2.113,-4.1,1.83,-40.31,128.43,14.36,8.33,2,1013.54,50.225,30.453472,-84.31873,165.6,154.7645462,,0,55.329033,,0 / 18,9205,2018-04-21 23:50:49:389,,,
0.8115,-0.9695,10.718,0.8525,-3.704,9.0437,-0.4907,-2.9691,-1.7554,-0.5601,0.3683,-2.6084,2.113,-5.4,2.84,-41.99,175.84,19.71,-5.66,2,1013.55,50.225,30.453472,-84.31873,165.6,154.7645462,,0,55.329033,,0 / 18,9306,2018-04-21 23:50:49:490,,,
1.8752,-1.9546,11.3306,1.7125,-3.7755,8.8909,-3.4227,-2.7139,-3.088,-0.3387,-0.1422,-2.7304,6.339,-2.55,5.6,-41.42,205.3,22.64,-10.9,2,1013.55,50.225,30.453472,-84.31873,165.6,154.7645462,,0,55.329033,,0 / 18,9406,2018-04-21 23:50:49:590,,,
4.9224,-0.7391,9.2343,1.8135,-2.8971,9.1953,-2.867,-1.3479,1.6145,0.1053,1.4744,-2.9127,6.339,6.23,5.1,-40.61,243.94,17.18,-11.16,2,1013.54,54.183,30.453472,-84.31873,165.6,154.7645462,,0,55.329033,,0 / 18,9506,2018-04-21 23:50:49:690,,,
4.3108,-0.4313,8.8885,2.8315,-2.7242,8.9887,-1.1214,-1.262,-0.0997,-0.5798,0.055,-2.2366,6.339,6.87,6.47,-42.05,253.25,16.23,-14.2,2,1013.53,54.183,30.453472,-84.31873,165.6,154.7645462,,0,55.329033,,0 / 18,9606,2018-04-21 23:50:49:790,,,
4.6847,-0.5331,10.0285,2.843,-2.9677,8.9077,-1.7482,-2.6613,-1.3691,-1.0518,0.9653,-2.1881,6.339,7.41,12.63,-41.89,272.74,17.61,-17.7,2,1013.53,54.183,30.453472,-84.31873,165.6,154.7645462,,0,55.329033,,0 / 18,9706,2018-04-21 23:50:49:890,,,
7.3491,-1.0277,11.9761,2.0799,-2.6902,9.2018,-5.1151,-1.5351,-2.6773,-0.5692,1.2335,-2.2174,6.339,12.57,19.71,-39.69,288.99,18.08,-17.22,2,1013.54,42.666,30.453472,-84.31873,165.6,154.7645462,,0,55.329033,,0 / 18,9806,2018-04-21 23:50:49:990,,,
5.1611,-2.3654,10.0821,0.6533,-2.6417,9.425,-2.5014,1.3764,0.7463,-0.5176,2.9434,-2.7444,6.339,18.92,23.54,-36.17,298.88,15.92,-12.74,2,1013.54,42.666,30.453472,-84.31873,165.6,154.7645462,,0,55.329033,,0 / 18,9905,2018-04-21 23:50:50:089,,,
1.7474,-3.7542,7.3743,-1.0038,-3.283,9.1897,-2.4894,0.807,3.5172,-0.4595,2.1553,-1.3311,6.339,28.27,30.79,-27.92,308.32,16.81,2.18,2,1013.54,42.666,30.453472,-84.31873,165.6,154.7645462,,0,55.329033,,0 / 18,10006,2018-04-21 23:50:50:190,,,
0.9045,-4.9652,7.0779,-1.2995,-3.2779,9.1544,-0.8085,0.2167,2.5345,0.2921,-0.1126,-0.2954,27.467,31.36,34.13,-25.28,309.39,19.52,8.08,2,1013.55,38.427,30.453472,-84.31873,165.6,154.7645462,,0,55.329033,,0 / 18,10106,2018-04-21 23:50:50:290,,,
0.33,-3.2978,8.5475,0.2113,-2.5301,9.4758,-0.0605,-0.8988,1.1911,0.6584,-0.5833,-0.5206,27.467,26.15,31.73,-28.8,311.52,14.95,-1.28,2,1013.55,38.427,30.453472,-84.31873,165.6,154.7645462,,0,55.329033,,0 / 18,10206,2018-04-21 23:50:50:390,,,
-0.3197,-2.5969,11.1339,-0.0633,-2.3797,9.5168,0.7645,-0.033,-1.8918,0.3429,0.0598,-0.2277,27.467,24.42,31.59,-30.92,314.33,13,-1.79,2,1013.56,38.427,30.453472,-84.31873,165.6,154.7645462,,0,55.329033,,0 / 18,10306,2018-04-21 23:50:50:490,,,
-1.076,-2.6907,10.7276,-0.5309,-3.2728,9.2327,1.1872,-0.0922,-0.8282,-1.1111,-0.068,-0.4711,27.467,26.73,36.06,-26.49,314.2,19.49,3.29,2,1013.57,38.427,30.453472,-84.31873,165.6,154.7645462,,0,55.329033,,0 / 18,10406,2018-04-21 23:50:50:590,,,
-0.3385,-1.367,10.381,1.541,-1.95,9.4899,1.6489,-0.8986,-0.0665,1.7573,-2.0173,-0.1638,27.467,21.61,32.9,-30.79,315.29,11.47,-9.22,2,1013.58,34.872,30.453472,-84.31873,165.6,154.7645462,,0,55.329033,,0 / 18,10509,2018-04-21 23:50:50:693,,,
0.9125,-1.28,8.4361,1.8255,-1.9353,9.4424,1.1488,-0.1109,1.2507,-0.5508,0.2031,-0.5876,27.467,19.13,28.61,-33.64,312.73,11.47,-9.22,2,1013.58,34.872,30.453472,-84.31873,165.6,154.7645462,,0,55.329033,,0 / 18,10608,2018-04-21 23:50:50:792,,,
0.7664,-2.1413,8.1054,1.5371,-2.3343,9.4034,0.8493,-0.1216,1.4142,-0.5618,0.4393,-1.1716,27.467,17.82,34.08,-32.57,318.13,13.34,-10.27,2,1013.57,34.872,30.453472,-84.31873,165.6,154.7645462,,0,55.329033,,0 / 18,10706,2018-04-21 23:50:50:890,,,
0.9133,-2.7384,9.9009,1.3511,-2.8499,9.3146,-0.2703,-0.1124,-0.0974,-0.6846,0.592,-0.8111,17.959,16.37,39.35,-30.94,326.2,15.09,-8.2,2,1013.57,29.592,30.453472,-84.31873,165.6,154.7645462,,0,55.329033,,0 / 18,10806,2018-04-21 23:50:50:990,,,
1.5979,-3.1774,10.7744,1.1602,-2.7986,9.3305,-0.4499,1.3605,-1.0943,0.0982,-0.1043,0.1724,17.959,16.06,39.81,-30.17,327.22,16.58,-7.09,2,1013.57,29.592,30.453472,-84.31873,165.6,154.7645462,,0,55.329033,,0 / 18,10906,2018-04-21 23:50:51:090,,,
0.5034,-2.0653,10.6353,0.8733,-2.3035,9.4956,-0.1344,-0.4707,-0.0354,0.7031,0.4633,0.3971,17.959,16.21,38.48,-30.5,326.44,15.96,-6.12,2,1013.57,29.592,30.453472,-84.31873,165.6,154.7645462,,0,55.329033,,0 / 18,11006,2018-04-21 23:50:51:190,,,
1.2038,-2.2809,9.2879,0.6619,-2.641,9.4246,-0.3361,-0.2725,0.9159,-0.2467,0.2301,0.5766,17.959,19,37.78,-30.31,323.92,15.62,-4.02,2,1013.56,29.087,30.453472,-84.31873,165.6,154.7645462,,0,55.329033,,0 / 18,11108,2018-04-21 23:50:51:292,,,
1.1851,-1.9594,8.4685,1.0251,-2.1122,9.5249,-0.4897,-0.0581,1.585,0.6786,-0.6194,0.1595,17.959,18.78,35.31,-32.01,321.21,12.43,-6.14,2,1013.56,29.087,30.453472,-84.31873,165.6,154.7645462,,0,55.329033,,0 / 18,11206,2018-04-21 23:50:51:390,,,
1.5847,-2.0646,8.838,0.7635,-2.5274,9.4481,-0.3763,0.2536,0.2084,-1.1481,0.6445,0.0356,17.959,19.23,35.85,-31.94,321.41,14.93,-4.62,2,1013.56,29.087,30.453472,-84.31873,165.6,154.7645462,,0,55.329033,,0 / 18,11306,2018-04-21 23:50:51:490,,,
0.3473,-3.9987,9.5993,0.1775,-3.6379,9.1088,-0.2457,0.513,-0.18,-0.2097,-0.2645,0.2584,17.959,20.91,39.5,-28.45,321.38,19.84,-1.87,2,1013.56,28.825,30.453472,-84.31873,165.6,154.7645462,,0,55.329033,,0 / 18,11406,2018-04-21 23:50:51:590,,,
0.9169,-2.7448,10.7471,0.6779,-3.463,9.1534,-0.5537,-0.8681,-1.654,-0.0644,-0.5364,0.3372,19.016,20.44,39.32,-28.72,320.27,22.22,-2.31,2,1013.56,28.825,30.453472,-84.31873,165.6,154.7645462,,0,55.329033,,0 / 18,11508,2018-04-21 23:50:51:692,,,
0.2756,-1.7234,9.9651,0.9216,-3.2135,9.2228,0.6652,-1.006,-0.1213,0.2279,-0.7823,0.3513,19.016,19.72,36.63,-31.35,317.98,19.12,-5.71,2,1013.56,28.825,30.453472,-84.31873,165.6,154.7645462,,0,55.329033,,0 / 18,11606,2018-04-21 23:50:51:790,,,
0.7403,-2.1268,8.6169,1.3388,-3.0169,9.2381,0.3867,-0.9394,0.7533,0.3417,-0.4458,-0.1355,19.016,18.5,35.22,-32.27,317.37,17.74,-8.57,2,1013.56,28.825,30.453472,-84.31873,165.6,154.7645462,,0,55.329033,,0 / 18,11706,2018-04-21 23:50:51:890,,,
1.3169,-1.6849,8.5955,1.1454,-2.9988,9.2699,-0.4884,-2.0673,0.698,0.2349,0.3667,-0.348,19.016,18.39,36.87,-32.39,320.25,17.8,-7.04,2,1013.55,32.26,30.453472,-84.31873,165.6,154.7645462,,0,55.329033,,0 / 18,11806,2018-04-21 23:50:51:990,,,
1.5755,-1.5971,8.7631,1.0307,-2.7013,9.3743,-0.3329,-0.8096,0.5526,0.3722,-0.0113,0.6742,19.016,18.96,35.5,-32.05,319.73,15.98,-6.27,2,1013.54,32.26,30.453472,-84.31873,165.6,154.7645462,,0,55.329033,,0 / 18,11905,2018-04-21 23:50:52:089,,,
0.719,0.5238,10.1913,0.9022,-1.5139,9.6504,0.2937,-2.7488,-0.713,1.158,-0.3392,0.4325,19.016,19.56,29.87,-33.45,317.24,8.88,-5.34,2,1013.54,32.26,30.453472,-84.31873,165.6,154.7645462,,0,55.329033,,0 / 18,12006,2018-04-21 23:50:52:190,,,
0.009,1.8333,10.4091,0.4672,-0.8357,9.7632,-1.2523,-3.5907,0.3581,0.2919,1.2028,0.4697,19.016,20.88,27.6,-33.38,313.67,8.88,-5.34,2,1013.55,49.649,30.453472,-84.31873,165.6,154.7645462,,0,55.329033,,0 / 18,12106,2018-04-21 23:50:52:290,,,
-0.6404,-0.9921,9.6528,-0.2321,-1.2529,9.7269,1.2962,0.7519,-0.0782,-0.7591,-0.0063,1.2871,19.016,26.18,27.17,-32.53,310.91,8.64,1.81,2,1013.53,49.649,30.453472,-84.31873,165.6,154.7645462,,0,55.329033,,0 / 18,12208,2018-04-21 23:50:52:392,,,
-1.0959,-2.6481,9.9813,-0.7908,-1.1291,9.7127,-0.3482,2.0007,-0.0651,0.3983,0.7164,0.0591,16.903,27.53,27.08,-30.36,312.22,6.61,4.65,2,1013.53,49.649,30.453472,-84.31873,165.6,154.7645462,,0,55.329033,,0 / 18,12306,2018-04-21 23:50:52:490,,,
2.0695,-2.3691,9.4255,-1.744,-0.8825,9.6133,-2.3171,3.2689,0.6289,0.0786,-0.5098,-2.5751,16.903,30.85,25.92,-29.26,311.51,4.99,9.2,2,1013.53,55.679,30.453472,-84.31873,165.6,154.7645462,,0,55.329033,,0 / 18,12405,2018-04-21 23:50:52:589,,,
1.6629,-1.6734,9.172,0.765,-1.9605,9.5816,-2.3795,0.757,-0.7704,-0.6346,-1.4588,-2.4214,16.903,24.17,33.07,-29.87,323.03,8.46,5.5,2,1013.54,55.679,30.453472,-84.31873,165.6,154.7645462,,0,55.329033,,0 / 18,12505,2018-04-21 23:50:52:689,,,
2.1636,-0.9566,10.1913,2.6398,-2.6579,9.0666,0.6309,-1.3641,-1.5824,-1.7171,-1.9665,-2.2081,16.903,7.68,41.97,-30.26,334.2,15.72,-16.23,2,1013.54,55.679,30.453472,-84.31873,165.6,154.7645462,,0,55.329033,,0 / 18,12606,2018-04-21 23:50:52:790,,,
-0.0564,-3.4138,13.7247,3.9678,-3.0529,8.4364,4.6035,0.8225,-5.3373,-1.6492,-0.7558,-2.2975,16.903,-4,48.23,-26.39,348.85,18.13,-25.19,2,1013.53,54.527,30.453472,-84.31873,165.6,154.7645462,,0,55.329033,,0 / 18,12706,2018-04-21 23:50:52:890,,,
2.1503,-2.0561,8.3586,3.2477,-2.1553,9.0024,4.0251,0.359,-1.2126,0.4087,1.0081,-0.7972,16.903,-3.39,45.62,-28.69,349.71,12.69,-19.84,2,1013.53,54.527,30.453472,-84.31873,165.6,154.7645462,,0,55.329033,,0 / 18,12805,2018-04-21 23:50:52:989,,,
3.9016,1.4706,6.8617,2.667,-1.3471,9.3439,-1.0792,-3.8788,2.2508,0.3368,0.6434,-0.4369,16.903,-1.95,43.37,-30.25,348.8,12.42,-17.41,2,1013.53,54.527,30.453472,-84.31873,165.6,154.7645462,,0,55.329033,,0 / 18,12905,2018-04-21 23:50:53:089,,,
4.8001,-0.1445,6.1505,2.9007,0.4192,9.362,2.8681,3.7679,4.3558,2.4304,-1.0751,-1.1758,23.242,-7.38,33.39,-36.4,353.44,-2.45,-17.21,2,1013.52,54.527,30.453472,-84.31873,165.6,154.7645462,,0,55.329033,,0 / 18,13005,2018-04-21 23:50:53:189,,,
2.565,-5.1497,8.8011,6.7082,1.4506,7.0094,1.649,5.9881,-6.9842,2.4942,-4.2971,3.0442,23.242,-15.47,30.69,-34.47,357.25,-7.25,-26.44,2,1013.54,53.68,30.453472,-84.31873,165.6,154.7645462,,0,55.329033,,0 / 18,13105,2018-04-21 23:50:53:289,,,
11.8232,-2.3669,8.1504,9.2223,-1.3323,3.0678,-1.1701,1.6299,-2.6036,1.8835,-2.8776,4.6934,23.242,-23.92,30.49,-30.13,339.63,-0.42,-55.67,2,1013.54,53.68,30.453472,-84.31873,165.6,154.7645462,,0,55.329033,,0 / 18,13206,2018-04-21 23:50:53:390,,,
15.1811,-0.6398,1.1564,9.464,-2.3329,1.1073,-3.7596,-1.6021,3.1426,5.477,-3.2626,1.8958,23.242,-32.57,25.72,-24.17,310.02,13.76,-83.33,2,1013.52,53.68,30.453472,-84.31873,165.6,154.7645462,,0,55.329033,,0 / 18,13306,2018-04-21 23:50:53:490,,,
13.2616,-1.6934,-1.282,9.5886,-2.0615,-0.2105,-2.9738,0.1234,-0.044,1.9561,-1.4124,-0.1886,23.242,-37.91,17.18,-20.19,292.74,12.13,-91.26,0,1013.52,53.041,30.453472,-84.31873,165.6,154.7645462,,0,55.329033,,0 / 18,13406,2018-04-21 23:50:53:590,,,
9.4644,-1.9627,-1.8858,9.6742,-1.5375,-0.5305,2.3744,-0.3475,-0.0306,-1.1047,-0.0652,-0.7823,23.242,-39.22,15.9,-18.66,295.04,9.02,-93.14,0,1013.53,53.041,30.453472,-84.31873,165.6,154.7645462,,0,55.329033,,0 / 18,13506,2018-04-21 23:50:53:690,,,
9.5551,0.4463,-0.5025,9.753,-0.5945,-0.8729,-0.6573,-1.4739,-0.5213,0.6833,-0.4183,-0.7992,23.242,-40.39,13.59,-17.71,295.34,6.13,-93.87,0,1013.54,53.041,30.453472,-84.31873,165.6,154.7645462,,0,55.329033,,0 / 18,13606,2018-04-21 23:50:53:790,,,
9.0343,-1.1425,-1.1484,9.7476,-0.3942,-1.0315,-0.1439,0.6111,-0.5657,0.7763,-0.2838,-0.272,6.339,-41.09,9.82,-16.44,293.66,1.66,-96.05,0,1013.57,54.902,30.453472,-84.31873,165.6,154.7645462,,0,55.329033,,0 / 18,13706,2018-04-21 23:50:53:890,,,
9.5371,-0.5813,-2.00E-04,9.7636,-0.7174,-0.6268,0.6556,-0.6755,-1.5997,0.7172,0.4899,0.6839,6.339,-39.88,10.41,-18.95,288.36,4.19,-93.67,0,1013.57,54.902,30.453472,-84.31873,165.6,154.7645462,,0,55.329033,,18-Oct,13805,2018-04-21 23:50:53:989,,,
10.365,-2.012,-0.4822,9.0767,-3.6908,-0.4777,1.8551,0.1321,1.3955,-0.3043,0.2543,2.3809,6.339,-39.45,14.96,-20.42,292.11,9.17,-92.18,0,1013.54,54.902,30.453472,-84.31873,165.6,154.7645462,,0,55.329033,,18-Oct,13905,2018-04-21 23:50:54:089,,,
8.083,-2.7129,-0.0962,7.9473,-5.744,-0.2888,4.3998,-3.6263,-0.9478,0.3607,0.4979,3.5291,6.339,-34.88,31.09,-19.7,283.43,35.84,-92.08,0,1013.54,52.456,30.453472,-84.31873,165.6,154.7645462,,0,55.329033,,18-Oct,14006,2018-04-21 23:50:54:190,,,
8.9752,-12.0846,1.0781,6.0249,-7.7141,0.6555,-3.6303,3.5887,-1.415,-0.0047,0.4501,0.5906,6.339,-26.74,38.03,-21.89,271.51,51.85,-83.79,0,1013.53,52.456,30.453472,-84.31873,165.6,154.7645462,,0,55.329033,,18-Oct,14106,2018-04-21 23:50:54:290,,,
5.8175,-3.9791,0.1964,6.2823,-7.5229,-0.4189,-0.386,-3.5613,-0.8833,-0.4254,-1.1081,-0.9297,6.339,-26.88,37.62,-21.08,277.76,49.96,-85.41,0,1013.71,52.456,30.453472,-84.31873,165.6,154.7645462,,0,55.329033,,18-Oct,14206,2018-04-21 23:50:54:390,,,
5.8142,-7.9952,-0.2616,6.1017,-7.6673,-0.467,0.1695,0.7657,-1.2271,0.0823,-0.56,-0.0842,6.339,-29.15,39.58,-17.91,279.64,51.41,-94.38,0,1013.71,52.456,30.453472,-84.31873,165.6,154.7645462,,0,55.329033,,18-Oct,14307,2018-04-21 23:50:54:491,,,
5.6819,-7.0816,-0.841,6.0691,-7.6186,-1.1658,0.3422,-0.556,-0.2312,-1.1747,0.1384,0.1515,0.71,-30.06,41.22,-15.08,281.82,51.46,-98.28,0,1013.88,53.089,30.453472,-84.31873,165.6,154.7645462,,0,55.329033,,18-Oct,14407,2018-04-21 23:50:54:591,,,
8.8117,-11.4967,-0.4557,5.8325,-7.8474,-0.7975,-1.556,0.8131,-0.5922,0.6045,0.0846,0.3822,0.71,-27.7,42.66,-16.49,285.22,53.12,-97.79,0,1013.97,53.089,30.453472,-84.31873,165.6,154.7645462,,0,55.329033,,18-Oct,14506,2018-04-21 23:50:54:690,,,
5.708,-6.6463,-0.7269,5.7068,-7.9494,-0.6892,0.4383,-2.8159,0.2486,0.3078,0.323,0.0695,0.71,-26.69,41.71,-18.28,282.89,53.7,-96.01,0,1013.97,53.089,30.453472,-84.31873,165.6,154.7645462,,0,55.329033,,18-Oct,14606,2018-04-21 23:50:54:790,,,
6.2781,-7.9285,-0.7771,5.6875,-7.9507,-0.821,-0.7193,0.331,0.3173,-0.3833,-0.1264,0.1166,0.71,-26.72,43.28,-16.56,284.89,54.14,-98.21,0,1013.87,50.31,30.453472,-84.31873,165.6,154.7645462,,0,55.329033,,18-Oct,14707,2018-04-21 23:50:54:891,,,
5.3451,-7.0201,-1.6271,5.7495,-7.7131,-1.9205,-0.5296,-1.3567,0.7943,-1.5031,-0.6196,-0.4985,0.71,-27.29,43.86,-12.11,296.74,51.84,-108.47,0,1013.87,50.31,30.453472,-84.31873,165.6,154.7645462,,0,55.329033,,0 / 18,14808,2018-04-21 23:50:54:992,,,
5.4715,-8.1626,-3.0583,5.6603,-7.1277,-3.6597,-1.2809,0.549,1.0575,-1.0646,-1.3982,-0.4355,0.71,-29.29,44.55,-7.33,305.22,47.49,-117.16,0,1013.74,50.31,30.453472,-84.31873,165.6,154.7645462,,0,55.329033,,0 / 18,14905,2018-04-21 23:50:55:089,,,
6.5558,-5.6187,-4.4699,5.5965,-6.9919,-4.0036,-0.27,-3.2803,0.5783,-0.2539,-0.3709,-0.0465,0.71,-30.21,45.29,-1.57,308.18,45.46,-125.58,0,1013.61,36.257,30.453472,-84.31873,165.6,154.7645462,,0,55.329033,,0 / 18,15006,2018-04-21 23:50:55:190,,,
4.605,-5.4187,-4.2252,5.6918,-6.9983,-3.8553,0.9336,-0.8678,0.5664,0.3794,-0.2479,-0.3556,0.71,-30.37,44.32,-1.44,307.44,45.51,-124.11,0,1013.64,36.257,30.453472,-84.31873,165.6,154.7645462,,0,55.329033,,0 / 18,15106,2018-04-21 23:50:55:290,,,
6.4849,-7.3598,-4.3031,5.7504,-7.0573,-3.6556,0.4893,1.7996,3.5531,0.1678,0.184,0.0646,0.71,-31.01,44.54,-3.79,304.94,46.01,-122.44,0,1013.64,36.257,30.453472,-84.31873,165.6,154.7645462,,0,55.329033,,0 / 18,15206,2018-04-21 23:50:55:390,,,
7.4365,-7.1272,-6.5917,5.6377,-7.1671,-3.6173,1.0942,1.157,1.3886,0.3665,-0.1141,-0.0105,0.71,-31.25,44.29,-3.39,303.04,46.5,-122.75,0,1013.66,31.371,30.453472,-84.31873,165.6,154.7645462,,0,55.329033,,0 / 18,15306,2018-04-21 23:50:55:490,,,
6.2322,-7.1479,-0.8026,5.8053,-7.227,-3.2103,-0.3179,-0.8978,-1.8362,0.1274,0.5451,0.0866,0.71,-30.96,44.54,-3.94,301.83,47.83,-121.28,0,1013.66,31.371,30.453472,-84.31873,165.6,154.7645462,,0,55.329033,,0 / 18,15406,2018-04-21 23:50:55:590,,,Out
5.3789,-8.0333,0.116,5.719,-7.4522,-2.8273,-1.5552,0.0911,-1.913,0.3481,0.7035,0.0123,0.71,-29.95,44.38,-7.56,297.99,49.43,-116.31,0,1013.77,31.371,30.453472,-84.31873,165.6,154.7645462,,0,55.329033,,0 / 18,15507,2018-04-21 23:50:55:691,,,Out
5.7341,-6.8153,-1.3591,6.1772,-7.3917,-1.855,0.1309,-0.3543,-0.0688,0.4088,0.743,-0.3171,0.71,-30.8,43.37,-8.97,296.56,47.91,-111.61,0,1013.8,31.371,30.453472,-84.31873,165.6,154.7645462,,0,55.329033,,0 / 18,15606,2018-04-21 23:50:55:790,,,Out
6.245,-6.8193,-1.8127,6.1653,-7.5204,-1.2915,-0.8134,-1.125,0.9782,0.4873,0.7975,0.2958,0.71,-28.96,43.3,-13.69,292.28,50.05,-101.83,0,1013.91,38.805,30.453472,-84.31873,165.6,154.7645462,,0,55.329033,,0 / 18,15705,2018-04-21 23:50:55:889,,,Out
6.5697,-7.2157,-0.5502,5.7359,-7.9355,-0.6032,-0.9052,-0.4576,-0.7158,0.5417,0.2312,0.6382,0.71,-26.37,44.03,-16.79,288.04,53.99,-96,0,1013.91,38.805,30.453472,-84.31873,165.6,154.7645462,,0,55.329033,,0 / 18,15806,2018-04-21 23:50:55:990,,,Out
9.1625,-9.3896,-0.9864,5.7938,-7.9123,-0.2542,-3.398,1.9286,1.1831,0.0109,0.6519,-0.052,0.71,-24.49,42.88,-18.31,289.89,53.75,-93.78,0,1013.86,38.805,30.453472,-84.31873,165.6,154.7645462,,0,55.329033,,0 / 18,15907,2018-04-21 23:50:56:091,,,Out
9.1669,-7.6336,0.4991,5.9522,-7.7621,-0.7465,2.4719,0.9929,-1.5926,-0.5085,-1.6476,-0.507,0.71,-24.95,43.67,-18.15,288.82,53.76,-92.51,0,1013.86,51.667,30.453472,-84.31873,165.6,154.7645462,,0,55.329033,,0 / 18,16006,2018-04-21 23:50:56:190,,,Out
5.383,-10.5857,-1.4573,6.1336,-7.0341,-3.0226,1.2199,4.4821,-1.257,-1.5892,-1.3295,-0.4899,0.71,-29.74,43.38,-9.72,294.82,49.39,-108.24,0,1013.54,51.667,30.453472,-84.31873,165.6,154.7645462,,0,55.329033,,0 / 18,16106,2018-04-21 23:50:56:290,,,Out
6.4599,-7.165,-2.6043,6.1383,-6.6441,-3.7965,-0.0321,-1.5537,-0.5516,-0.7408,-0.8402,-0.2204,0.71,-31.81,43.84,-2.55,307.75,42.63,-121.74,0,1013.37,51.667,30.453472,-84.31873,165.6,154.7645462,,0,55.329033,,0 / 18,16206,2018-04-21 23:50:56:390,,,Out
3.8311,-4.5622,-3.0454,5.7411,-6.6587,-4.3516,3.0886,-2.4843,-0.894,0.3606,-1.2506,-0.2271,0.71,-31.81,44.07,-0.3,309.53,41.86,-125.84,0,1013.37,48.085,30.453472,-84.31873,165.6,154.7645462,,0,55.329033,,0 / 18,16305,2018-04-21 23:50:56:489,,,Out
2.3638,-3.6438,-3.5631,5.8103,-6.8699,-3.909,2.8351,-3.3102,-0.2676,0.8242,0.7514,0.0844,0.71,-32.99,43.13,-2.08,301.5,44.45,-123.93,0,1013.3,48.085,30.453472,-84.31873,165.6,154.7645462,,0,55.329033,,0 / 18,16406,2018-04-21 23:50:56:590,,,Out
6.9028,-6.949,-6.7123,5.8562,-6.8705,-3.8388,1.1111,-3.3237,2.9544,-0.3039,-0.6823,-0.4005,0.71,-32.15,42.8,-3.45,303.16,44.46,-123.24,0,1013.45,48.085,30.453472,-84.31873,165.6,154.7645462,,0,55.329033,,0 / 18,16506,2018-04-21 23:50:56:690,,,Out
2.1944,-7.7055,-2.7291,5.67,-7.0021,-3.8803,3.7677,0.1448,-0.1855,0.5822,-0.5458,0.2424,0.71,-32.75,42.96,-1.77,300.86,44.77,-125.37,0,1013.45,57.034,30.453472,-84.31873,165.6,154.7645462,,0,55.329033,,0 / 18,16605,2018-04-21 23:50:56:789,,,Out
6.9502,-7.5121,-0.0176,5.8682,-6.9718,-3.6325,-1.185,0.8582,-2.0167,0.2489,0.9176,0.2388,0.71,-33.09,42.11,-2.25,297.99,45.54,-124.39,0,1013.61,57.034,30.453472,-84.31873,165.6,154.7645462,,0,55.329033,,0 / 18,16705,2018-04-21 23:50:56:889,,,Out
5.322,-5.5768,-1.4196,6.1705,-7.2174,-2.4638,1.1253,-2.0406,-1.1299,0.3453,1.0366,-0.1946,0.71,-32.4,41.99,-6.68,297.44,46.19,-116.62,0,1013.71,57.034,30.453472,-84.31873,165.6,154.7645462,,0,55.329033,,0 / 18,16806,2018-04-21 23:50:56:990,,,Out
6.2068,-6.8979,-1.7123,6.1378,-7.4277,-1.8417,0.3354,-1.7192,0.5042,0.4217,0.9374,0.348,0.71,-28.87,42.55,-11.76,296,49.21,-106.7,0,1013.71,57.034,30.453472,-84.31873,165.6,154.7645462,,0,55.329033,,0 / 18,16906,2018-04-21 23:50:57:090,,,Out
6.6718,-6.7549,-1.8714,5.8131,-7.8457,-0.943,-0.2936,0.4586,-0.3028,0.6023,0.4857,0.4387,0.71,-28.15,42.4,-14.51,290.02,51.15,-102.2,0,1013.89,59.961,30.453472,-84.31873,165.6,154.7645462,,0,55.329033,,0 / 18,17006,2018-04-21 23:50:57:190,,,Out
7.7528,-8.9443,-0.3546,5.7684,-7.923,-0.4339,-4.0596,1.9422,-0.5064,0.2633,0.4991,0.0087,0.71,-26.28,43,-16.61,286.09,54.17,-96.06,0,1013.87,59.961,30.453472,-84.31873,165.6,154.7645462,,0,55.329033,,0 / 18,17105,2018-04-21 23:50:57:289,,,Out
9.9261,-8.1848,-0.6254,5.906,-7.7993,-0.7256,-3.7594,-0.9357,0.2338,-0.759,-0.6753,-0.5078,0.71,-25.81,43.13,-16.65,289.79,52.66,-97,0,1013.87,59.961,30.453472,-84.31873,165.6,154.7645462,,0,55.329033,,0 / 18,17206,2018-04-21 23:50:57:390,,,Out
4.7938,-11.0936,-1.6075,6.1732,-6.9614,-3.1093,-0.0086,3.7847,-1.3319,-1.5079,-1.8446,-0.7012,0.71,-30.05,43.26,-7.63,303.84,45.2,-116.73,0,1013.48,56.006,30.453472,-84.31873,165.6,154.7645462,,0,55.329033,,0 / 18,17306,2018-04-21 23:50:57:490,,,Out
6.6568,-7.3346,-3.131,6.2185,-6.4944,-3.9229,1.0631,-2.1965,-0.9109,-0.7552,-0.945,-0.4628,0.71,-32.16,43.58,-4.14,303.73,45.2,-116.73,0,1013.48,56.006,30.453472,-84.31873,165.6,154.7645462,,0,55.329033,,0 / 18,17406,2018-04-21 23:50:57:590,,,Out
4.7835,-4.7296,-3.1922,5.8125,-6.5635,-4.4014,0.9045,-1.5407,-1.0264,0.6231,-1.3605,-0.2769,0.71,-33.58,42.77,0,306.66,40.43,-126.12,0,1013.29,56.006,30.453472,-84.31873,165.6,154.7645462,,0,55.329033,,0 / 18,17507,2018-04-21 23:50:57:691,,,Out
2.5088,-3.0252,-2.9007,5.9199,-6.7752,-3.9099,2.3765,0.2351,0.284,0.907,0.6251,-0.1014,0.71,-33.45,41.42,-2.33,299.85,43.68,-123.44,0,1013.3,52.858,30.453472,-84.31873,165.6,154.7645462,,0,55.329033,,0 / 18,17607,2018-04-21 23:50:57:791,,,Out
7.7991,-6.5567,-6.9973,6.1629,-6.5075,-3.9883,-1.6561,-6.9392,2.0971,-0.8113,0.0564,-0.5185,0.71,-34.1,40.62,-1.54,301.74,41.56,-122.91,0,1013.47,52.858,30.453472,-84.31873,165.6,154.7645462,,0,55.329033,,0 / 18,17705,2018-04-21 23:50:57:889,,,Out
5.5009,-13.9076,-3.4513,5.8232,-7.0018,-3.647,2.4717,4.8054,-1.6663,1.2941,-0.5301,0.2615,0.71,-35.06,40.77,-1.66,300.28,41.38,-122.45,0,1013.47,52.858,30.453472,-84.31873,165.6,154.7645462,,0,55.329033,,0 / 18,17806,2018-04-21 23:50:57:990,,,Out
4.5081,-6.1233,-0.2933,5.97,-6.9835,-3.439,0.8463,-4.3032,-4.5799,0.2342,1.0716,0.3256,0.71,-32.7,41.78,-5.47,297.69,45.39,-119.94,0,1013.52,52.858,30.453472,-84.31873,165.6,154.7645462,,0,55.329033,,0 / 18,17906,2018-04-21 23:50:58:090,,,Out
3.6372,-6.5941,-0.9506,6.1601,-7.3336,-2.123,3.3354,-0.9161,-1.0727,0.8918,0.4386,-0.0482,0.71,-30.94,40.98,-9.28,291.99,48.38,-109.02,0,1013.52,51.922,30.453472,-84.31873,165.6,154.7645462,,0,55.329033,,0 / 18,18006,2018-04-21 23:50:58:190,,,Out
6.2086,-8.3471,-1.0192,6.1362,-7.5268,-1.3892,-1.5574,-1.9409,1.8204,0.0408,1.4862,0.3983,0.71,-29.65,41.08,-13.29,287.39,50.11,-102.76,0,1013.63,51.922,30.453472,-84.31873,165.6,154.7645462,,0,55.329033,,0 / 18,18106,2018-04-21 23:50:58:290,,,Out
7.2323,-6.0414,-1.6887,5.8011,-7.8866,-0.62,-1.4016,-1.5729,1.0456,0.4501,0.1255,0.311,0.71,-26,42.98,-16.24,293.22,51.6,-98.76,0,1013.76,51.922,30.453472,-84.31873,165.6,154.7645462,,0,55.329033,,0 / 18,18206,2018-04-21 23:50:58:390,,,Out
7.013,-8.2519,-0.7015,5.735,-7.9563,-0.2068,-0.5148,0.308,0.561,0.205,0.3495,-0.0092,0.71,-24.68,42.09,-19.66,284.72,53.84,-93.64,0,1013.75,44.035,30.453472,-84.31873,165.6,154.7645462,,0,55.329033,,0 / 18,18306,2018-04-21 23:50:58:490,,,Out
9.2293,-8.8035,-0.3664,6.011,-7.7244,-0.6614,-1.7164,0.9007,-1.2474,-0.5704,-0.5246,-0.7645,0.71,-24.73,42.79,-17.81,292.37,51.94,-96.28,0,1013.75,44.035,30.453472,-84.31873,165.6,154.7645462,,0,55.329033,,0 / 18,18406,2018-04-21 23:50:58:590,,,Out
6.5146,-13.2852,-0.7697,6.2725,-7.238,-2.122,-1.0535,2.32,-1.5796,-0.3927,-1.6506,-0.6101,0.71,-28.38,42.37,-15.18,294.17,49,-101.51,0,1013.56,44.035,30.453472,-84.31873,165.6,154.7645462,,0,55.329033,,0 / 18,18506,2018-04-21 23:50:58:690,,,
5.9618,-9.1699,-1.3137,6.7372,-6.8358,-2.0292,0.7774,1.8053,-0.623,0.6259,0.8348,-1.1606,0.71,-30.39,42.47,-11.59,301.86,44.17,-106.76,0,1013.56,56.694,30.453472,-84.31873,165.6,154.7645462,,0,55.329033,,0 / 18,18606,2018-04-21 23:50:58:790,,,
6.4026,-11.886,0.1762,7.3641,-6.4224,0.8706,0.1058,4.9625,-0.104,1.352,0.6245,-0.6645,0.71,-27.35,38.67,-21.12,300.25,40.9,-83.26,0,1013.57,56.694,30.453472,-84.31873,165.6,154.7645462,,0,55.329033,,0 / 18,18705,2018-04-21 23:50:58:889,,,
3.7775,-4.2792,-0.9938,6.5317,-6.7536,2.8217,3.2526,-2.4961,6.8504,-0.1349,1.3402,1.1132,0.71,-14.92,41.44,-25.99,306.29,43.51,-66.64,0,1013.37,56.694,30.453472,-84.31873,165.6,154.7645462,,0,55.329033,,0 / 18,18806,2018-04-21 23:50:58:990,,,
0.0318,-7.1876,-1.1705,6.6708,-6.2305,3.594,7.0316,0.7676,3.8296,-2.827,4.4401,-1.4385,0.71,-12.98,39.41,-30.03,297.96,43.51,-66.64,0,1013.37,49.838,30.453472,-84.31873,165.6,154.7645462,,0,55.329033,,0 / 18,18907,2018-04-21 23:50:59:091,,,
-4.583,-8.5294,4.2639,3.3336,-7.9182,4.7356,8.8914,0.79,0.6997,-3.7464,6.5134,0.3133,0.71,3.16,49.83,-20.36,327.89,45.28,-53.22,2,1013.29,49.838,30.453472,-84.31873,165.6,154.7645462,,0,55.329033,,0 / 18,19006,2018-04-21 23:50:59:190,,,
-5.0392,-6.5004,0.5415,1.6863,-8.4975,4.6027,6.3916,1.3393,2.6983,-1.9146,1.7758,1.0425,0.71,17.65,51.37,-10.26,318.15,60.02,-20.12,2,1013.31,49.838,30.453472,-84.31873,165.6,154.7645462,,0,55.329033,,0 / 18,19106,2018-04-21 23:50:59:290,,,
-3.5432,-17.3583,2.7278,0.4173,-9.7846,0.569,2.6552,9.6162,-5.2657,-3.8396,0.4888,0.9468,0.71,20.19,53.35,0.19,317.98,72.15,-15.64,2,1013.31,44.149,30.453472,-84.31873,165.6,154.7645462,,0,55.329033,,0 / 18,19205,2018-04-21 23:50:59:389,,,
-2.4042,-18.5668,2.8688,-0.2374,-9.7609,-0.9514,1.7729,7.2438,-1.7597,-1.3607,-3.028,0.5153,0.71,24.58,50.32,7.55,111.4,84.26,165.99,2,1013.3,44.149,30.453472,-84.31873,165.6,154.7645462,,0,55.329033,,0 / 18,19306,2018-04-21 23:50:59:490,,,
-0.8556,-12.8692,2.2946,-2.146,-9.5589,-0.5073,-1.3833,1.3848,-1.1746,-0.1998,-2.3666,2.0706,16.903,27.83,47,-4.57,142.74,77.01,103.3,2,1013.3,44.149,30.453472,-84.31873,165.6,154.7645462,,0,55.329033,,0 / 18,19407,2018-04-21 23:50:59:591,,,
-1.4639,-8.5916,1.8808,-3.6896,-9.0888,-0.1302,-1.8733,-0.3282,-2.4506,-0.4849,-2.7447,1.2268,16.903,30.15,42.49,-11.63,131.58,67.89,92.02,2,1013.33,44.149,30.453472,-84.31873,165.6,154.7645462,,0,55.329033,,0 / 18,19506,2018-04-21 23:50:59:690,,,
-2.8982,-8.8339,2.4765,-4.0473,-8.9284,-0.3729,-0.8212,-0.2264,-2.6393,-0.2139,-0.698,0.7038,16.903,29.78,42.36,-12.35,120.86,65.52,95.26,2,1013.36,58.463,30.453472,-84.31873,165.6,154.7645462,,0,55.329033,,0 / 18,19606,2018-04-21 23:50:59:790,,,
-2.1217,-9.2699,-1.9271,-4.3598,-8.4537,2.4006,-2.5425,0.8052,4.086,2.5678,-0.0284,0.5432,16.903,31.81,37.71,-19.32,128.63,62.91,84.52,2,1013.45,58.463,30.453472,-84.31873,165.6,154.7645462,,0,55.329033,,0 / 18,19706,2018-04-21 23:50:59:890,,,
-2.5368,-11.6908,-2.845,-3.0206,-8.6574,3.4873,1.0691,2.5392,0.0265,-1.0015,-1.9123,-1.9398,16.903,23.84,38.25,-26.54,181.9,61.95,40.9,2,1013.45,58.463,30.453472,-84.31873,165.6,154.7645462,,0,55.329033,,0 / 18,19806,2018-04-21 23:50:59:990,,,
-3.2655,-8.9965,7.8688,-2.7694,-9.403,0.3879,-0.9122,-2.4671,-6.3643,0.2807,0.5428,1.0229,16.903,22.47,44.68,-20.34,171.37,72.72,52.1,2,1013.42,57.345,30.453472,-84.31873,165.6,154.7645462,,0,55.329033,,0 / 18,19906,2018-04-21 23:51:00:090,,,
-0.384,-5.3468,3.4866,-3.4158,-8.5871,3.291,-3.7919,-3.2081,-1.0168,3.0842,-0.3352,0.7428,16.903,26.63,39.43,-21.61,159.53,66.5,60.65,2,1013.42,57.345,30.453472,-84.31873,165.6,154.7645462,,0,55.329033,,0 / 18,20006,2018-04-21 23:51:00:190,,,
-3.1307,-7.8162,2.4016,-3.2119,-8.554,3.5707,0.5836,1.6886,-1.239,0.164,0.4117,-0.332,33.806,27.23,36.23,-25.25,193.18,60.69,41.97,2,1013.47,57.345,30.453472,-84.31873,165.6,154.7645462,,0,55.329033,,0 / 18,20105,2018-04-21 23:51:00:289,,,
-2.0578,-15.4857,2.9496,-3.2181,-8.4881,3.7191,-0.5103,3.8382,1.0765,0.6747,0.7226,-0.0618,33.806,29.16,34.77,-23.41,206.3,59.91,40.87,2,1013.51,53.796,30.453472,-84.31873,165.6,154.7645462,,0,55.329033,,0 / 18,20206,2018-04-21 23:51:00:390,,,
-2.8501,-10.6843,3.0939,-3.0358,-8.4842,3.878,-1.3222,-2.0456,0.1577,0.1189,0.7756,-0.1842,33.806,29.2,36.25,-23.02,213.56,59.87,38.06,2,1013.49,53.796,30.453472,-84.31873,165.6,154.7645462,,0,55.329033,,0 / 18,20306,2018-04-21 23:51:00:490,,,
-3.7162,-6.8045,0.2422,-3.547,-8.478,3.4319,0.407,-1.9864,4.1146,0.5916,0.304,0.2661,33.806,32.81,35.69,-17.36,222.66,60.59,44,2,1013.49,53.796,30.453472,-84.31873,165.6,154.7645462,,0,55.329033,,0 / 18,20406,2018-04-21 23:51:00:590,,,
-3.1678,-8.3175,0.853,-4.7677,-7.9868,3.1169,-3.1518,1.0052,2.0238,-0.0307,0.3173,1.213,33.806,35.69,32.42,-16.82,217.95,56.73,48.35,2,1013.52,53.796,30.453472,-84.31873,165.6,154.7645462,,0,55.329033,,0 / 18,20506,2018-04-21 23:51:00:690,,,
3.451,-6.1033,5.5094,-4.3874,-8.4724,2.2817,2.5081,2.8133,-2.3945,-0.4096,1.6308,-1.5805,33.806,37.72,32.68,-13.36,218.36,54.5,56.83,2,1013.52,53.159,30.453472,-84.31873,165.6,154.7645462,,0,55.329033,,0 / 18,20608,2018-04-21 23:51:00:792,,,
-1.9928,-10.2557,1.2128,-3.9457,-8.3619,3.2782,0.6197,4.2907,-0.173,1.4301,-0.5309,-0.2117,33.806,37.4,36.76,-7.8,222.36,60.75,59.22,2,1013.53,53.159,30.453472,-84.31873,165.6,154.7645462,,0,55.329033,,0 / 18,20707,2018-04-21 23:51:00:891,,,
-3.2912,-9.6748,3.697,-3.8441,-8.6764,2.4859,0.5105,2.7855,-4.9098,-0.6859,1.28,-0.1039,19.016,36.14,39.51,-6.23,232.96,62.18,57.11,2,1013.63,53.159,30.453472,-84.31873,165.6,154.7645462,,0,55.329033,,0 / 18,20808,2018-04-21 23:51:00:992,,,
-2.7476,-7.9218,3.3272,-4.0676,-8.2977,3.2922,-1.1603,-0.6871,-0.8014,1.2714,0.0181,0.2238,19.016,38.09,37.27,-6.96,244.09,57.76,51.01,2,1013.63,54.172,30.453472,-84.31873,165.6,154.7645462,,0,55.329033,,0 / 18,20906,2018-04-21 23:51:01:090,,,
-3.2244,-8.0963,5.0219,-4.0389,-7.9059,4.1737,-1.4176,1.7651,-2.8935,2.2756,0.0659,-0.1806,19.016,39.03,36.62,-7.73,258.46,53.7,44.06,2,1013.69,54.172,30.453472,-84.31873,165.6,154.7645462,,0,55.329033,,0 / 18,21006,2018-04-21 23:51:01:190,,,
-1.371,-8.143,10.095,-3.5012,-5.4319,7.3805,-2.9384,2.6558,-3.726,4.6599,-0.1014,-1.5685,19.016,40.11,33.62,-12.73,291.94,33.62,25.38,2,1013.62,54.172,30.453472,-84.31873,165.6,154.7645462,,0,55.329033,,0 / 18,21105,2018-04-21 23:51:01:289,,,
-0.2176,-3.3575,7.488,-0.5184,-4.1807,8.8594,-1.2237,-0.4786,1.7285,2.6472,-1.3227,-3.0864,19.016,36.99,40.12,-23.46,309.83,22.76,15.95,2,1013.62,54.569,30.453472,-84.31873,165.6,154.7645462,,0,55.329033,,0 / 18,21205,2018-04-21 23:51:01:389,,,
4.4743,-5.2901,10.9619,1.5183,-5.7845,7.7763,-2.5258,0.966,1.211,-2.0322,-1.1511,-2.6114,19.016,29.18,45.53,-24.69,317.74,25.22,3.35,2,1013.5,54.569,30.453472,-84.31873,165.6,154.7645462,,0,55.329033,,0 / 18,21306,2018-04-21 23:51:01:490,,,
4.9484,-3.0081,6.3719,3.3751,-5.2241,7.5864,-2.0059,-2.9727,6.525,0.3186,1.0735,-3.7524,19.016,14.92,51.64,-23.22,328.84,32.07,-16.59,2,1013.47,54.569,30.453472,-84.31873,165.6,154.7645462,,0,55.329033,,0 / 18,21406,2018-04-21 23:51:01:590,,,
5.5747,-2.4876,8.4128,3.6081,-4.926,7.678,-2.1798,-3.3185,-0.2452,0.9415,-0.9783,-0.429,19.016,6.41,51.96,-22.96,336.98,30.14,-25.17,2,1013.47,52.697,30.453472,-84.31873,165.6,154.7645462,,0,55.329033,,0 / 18,21506,2018-04-21 23:51:01:690,,,
4.9786,0.1437,8.2253,3.509,-2.9825,8.6619,-1.2174,1.0822,-0.6079,3.4005,0.6149,-0.0943,8.452,5.29,45.5,-28.74,336.24,17.7,-22.05,2,1013.41,52.697,30.453472,-84.31873,165.6,154.7645462,,0,55.329033,,0 / 18,21606,2018-04-21 23:51:01:790,,,
4.0056,2.3275,7.2197,1.322,0.7041,9.695,0.1023,-2.4795,3.2733,4.6333,2.048,3.4599,8.452,7.5,34.64,-35.6,331.33,5.44,-17.29,2,1013.42,52.697,30.453472,-84.31873,165.6,154.7645462,,0,55.329033,,0 / 18,21706,2018-04-21 23:51:01:890,,,
1.7133,3.474,9.0664,0.5356,-0.3571,9.7889,-1.4668,-3.7361,-0.0351,-1.3288,1.0146,3.8733,8.452,19.13,19.67,-37.84,311.53,2.09,-3.13,2,1013.42,52.697,30.453472,-84.31873,165.6,154.7645462,,0,55.329033,,0 / 18,21806,2018-04-21 23:51:01:990,,,
0.1298,3.4485,7.2366,0.5289,0.1913,9.7939,0.2221,-3.2332,2.9784,1.226,-0.5181,5.476,8.452,18.27,6.74,-35.76,288.36,1.12,-1.61,2,1013.44,58.983,30.453472,-84.31873,165.6,154.7645462,,0,55.329033,,0 / 18,21906,2018-04-21 23:51:02:090,,,
-1.2523,1.6407,7.764,0.1796,-0.3878,9.8007,2.9628,0.3844,-1.6487,-0.3499,0.027,3.3313,8.452,16.92,2.54,-34.35,280.96,-1.12,-3.09,2,1013.44,58.983,30.453472,-84.31873,165.6,154.7645462,,0,55.329033,,0 / 18,22006,2018-04-21 23:51:02:190,,,
-1.552,-0.319,10.9759,0.3623,0.6091,9.7844,-0.2127,0.6397,-2.8,1.3102,0.0304,2.391,8.452,14.35,-5.81,-31.23,249.11,-1.06,-0.4,2,1013.44,58.983,30.453472,-84.31873,165.6,154.7645462,,0,55.329033,,0 / 18,22106,2018-04-21 23:51:02:290,,,
1.573,1.5084,12.5846,0.5728,0.1726,9.7917,-1.2759,-0.3417,-0.5584,-0.2698,0.0281,2.6122,8.452,4.77,-7.33,-34.81,230.28,-2.66,-2.42,2,1013.45,53.521,30.453472,-84.31873,165.6,154.7645462,,0,55.329033,,0 / 18,22205,2018-04-21 23:51:02:389,,,
-0.1423,0.0422,10.0426,0.4646,-0.7399,9.771,-0.5175,-1.4158,-0.8852,-1.7817,0.4863,1.2375,15.847,-0.29,-3.84,-36.34,194.31,4.33,-2.72,2,1013.48,53.521,30.453472,-84.31873,165.6,154.7645462,,0,55.329033,,0 / 18,22306,2018-04-21 23:51:02:490,,,
-0.3168,-1.7564,7.0133,0.0018,-1.1545,9.7418,-1.1539,-0.1925,2.4518,-0.3651,0.6562,0.8831,15.847,2.57,-2.93,-34.89,195.56,8.32,1.24,2,1013.48,53.521,30.453472,-84.31873,165.6,154.7645462,,0,55.329033,,0 / 18,22406,2018-04-21 23:51:02:590,,,
1.2038,-1.4626,7.2027,0.5092,-0.4782,9.7851,-0.9183,1.2595,2.0905,0.8103,-0.4693,0.898,15.847,-1.57,-8.49,-32.09,178,2.79,-2.98,2,1013.5,40.122,30.453472,-84.31873,165.6,154.7645462,,0,55.329033,,0 / 18,22507,2018-04-21 23:51:02:691,,,
0.7627,0.3722,11.7443,0.6636,-0.165,9.7861,-0.0053,-1.56,-2.6547,0.2074,-0.1506,1.2411,15.847,-7.44,-7.45,-34.31,148.28,0.96,-3.88,2,1013.5,40.122,30.453472,-84.31873,165.6,154.7645462,,0,55.329033,,0 / 18,22607,2018-04-21 23:51:02:791,,,
0.7414,1.983,12.4573,0.4197,-0.1708,9.7995,-0.8114,0.1652,-2.0004,0.4538,0.3314,0.6943,15.847,-8.15,-7.89,-33.57,142.75,1,-2.45,2,1013.53,40.122,30.453472,-84.31873,165.6,154.7645462,,0,55.329033,,0 / 18,22705,2018-04-21 23:51:02:889,,,
-0.9273,2.0434,10.5386,-0.2887,1.5346,9.6849,1.0373,1.8536,-0.0559,1.0391,0.84,0.7251,15.847,-7.71,-13.9,-29.88,146.86,-4.31,-0.69,2,1013.54,37.766,30.453472,-84.31873,165.6,154.7645462,,0,55.329033,,0 / 18,22806,2018-04-21 23:51:02:990,,,
-1.6865,0.9913,7.2163,-0.6871,3.3206,9.2053,0.3867,1.2155,2.7898,1.8103,0.7804,1.1973,15.847,-7.77,-16.78,-28.52,132.38,-14.4,4.69,2,1013.54,37.766,30.453472,-84.31873,165.6,154.7645462,,0,55.329033,,0 / 18,22907,2018-04-21 23:51:03:091,,,
-2.417,0.5438,8.7365,-0.8702,3.0818,9.2726,-1.8007,-6.4053,3.7392,-1.4412,-0.0306,1.1458,19.016,-11.03,-15.88,-29.42,115.25,-18.31,5.36,2,1013.54,37.766,30.453472,-84.31873,165.6,154.7645462,,0,55.329033,,0 / 18,23006,2018-04-21 23:51:03:190,,,
-0.3359,0.2848,10.8678,-0.9771,0.1825,9.7595,-0.8995,0.2247,0.5867,-2.4723,-0.0011,-0.2776,19.016,-12.4,-11.33,-31.74,111.84,-10.32,1.51,2,1013.54,40.162,30.453472,-84.31873,165.6,154.7645462,,0,55.329033,,0 / 18,23106,2018-04-21 23:51:03:290,,,
0.2216,-1.6956,10.5253,-0.2858,-0.5721,9.7891,-0.2018,-0.5537,-2.1654,0.179,-1.3642,0.5057,19.016,-12.81,-4.87,-35.52,116.71,3.34,1.67,2,1013.54,40.162,30.453472,-84.31873,165.6,154.7645462,,0,55.329033,,0 / 18,23206,2018-04-21 23:51:03:390,,,
1.6526,-1.0729,9.5875,0.4286,-0.0632,9.8004,-0.7988,0.8539,1.1159,0.3306,0.7002,-0.0089,19.016,-15.37,-5.78,-34.06,114.75,0.37,-2.5,2,1013.55,40.162,30.453472,-84.31873,165.6,154.7645462,,0,55.329033,,0 / 18,23306,2018-04-21 23:51:03:490,,,
-0.1945,0.596,9.3292,-0.9113,1.0866,9.707,-0.2533,0.3695,0.5642,1.0071,0.9561,-0.1079,19.016,-11.92,-9.24,-33.57,122.27,-2.37,0.02,2,1013.55,40.162,30.453472,-84.31873,165.6,154.7645462,,0,55.329033,,0 / 18,23406,2018-04-21 23:51:03:590,,,
-1.0551,1.1472,8.4781,-0.5852,1.3906,9.6933,-1.6901,-1.6415,-2.1632,-0.2321,-1.2331,1.0718,19.016,-10.77,-10.88,-33.48,117.82,-6.36,5.36,2,1013.55,46.906,30.453472,-84.31873,165.6,154.7645462,,0,55.329033,,0 / 18,23506,2018-04-21 23:51:03:690,,,
-0.2981,2.4727,10.5175,0.2145,1.1252,9.7429,0.3852,-1.8503,0.1029,-0.1077,-0.2099,0.3228,19.016,-16.06,-9.76,-32.73,110.1,-6.82,0.89,2,1013.56,46.906,30.453472,-84.31873,165.6,154.7645462,,0,55.329033,,0 / 18,23606,2018-04-21 23:51:03:790,,,
-0.1218,1.6959,11.8864,-0.1965,0.7719,9.7776,0.8066,-0.2974,0.4314,-0.1454,1.1196,-0.8741,14.79,-14.25,-7.99,-33.78,109.93,-4.51,1.15,2,1013.56,46.906,30.453472,-84.31873,165.6,154.7645462,,0,55.329033,,0 / 18,23706,2018-04-21 23:51:03:890,,,
-1.2215,0.945,9.2177,-0.7382,0.8606,9.7443,0.0632,-0.4733,-0.1307,0.1652,0.2597,-0.1451,14.79,-11.06,-8.65,-34.81,112.9,-5.15,5.01,2,1013.56,54.891,30.453472,-84.31873,165.6,154.7645462,,0,55.329033,,0 / 18,23806,2018-04-21 23:51:03:990,,,
-0.9982,-0.0127,9.2443,-0.7573,0.1887,9.7789,0.4353,0.5468,2.5867,-0.7155,0.0736,-0.6291,14.79,-9.29,-8.2,-36.56,114.36,-3.03,7.07,2,1013.56,54.891,30.453472,-84.31873,165.6,154.7645462,,0,55.329033,,0 / 18,23907,2018-04-21 23:51:04:091,,,
-0.4626,-0.0905,9.7551,-0.7266,0.1766,9.7815,-0.1981,0.0417,1.2284,-0.1036,-0.3328,-0.283,14.79,-9.79,-7.93,-35.74,120.23,-1.03,4.25,2,1013.56,54.891,30.453472,-84.31873,165.6,154.7645462,,0,55.329033,,0 / 18,24006,2018-04-21 23:51:04:190,,,
0.9507,1.2047,10.6253,-0.0183,0.4409,9.8001,-1.4651,-0.4819,-1.9289,0.155,-0.7371,-0.593,14.79,-11.47,-8.28,-33.79,120.3,-2.58,0.11,2,1013.56,55.903,30.453472,-84.31873,165.6,154.7645462,,0,55.329033,,0 / 18,24106,2018-04-21 23:51:04:290,,,
0.3924,0.9787,8.487,0.1502,1.007,9.757,-1.2382,-1.7895,-0.7992,0.6462,-1.0002,0.1464,14.79,-10.97,-11.68,-33.91,133.4,-2.58,0.11,2,1013.57,55.903,30.453472,-84.31873,165.6,154.7645462,,0,55.329033,,0 / 18,24206,2018-04-21 23:51:04:390,,,
0.8633,2.1826,8.1763,0.4837,1.0077,9.7461,-0.0439,-1.1755,1.7498,0.0566,-0.2885,-0.7591,14.79,-12.19,-13.94,-32.71,134.83,-7.65,-4.41,2,1013.57,55.903,30.453472,-84.31873,165.6,154.7645462,,0,55.329033,,0 / 18,24305,2018-04-21 23:51:04:489,,,
0.2819,1.7429,9.1221,0.3081,0.8487,9.7684,0.1525,-1.506,1.01,-0.2515,0.042,-0.0762,14.79,-10.86,-12.36,-33.11,132.34,-4.96,-1.81,2,1013.57,55.903,30.453472,-84.31873,165.6,154.7645462,,0,55.329033,,0 / 18,24406,2018-04-21 23:51:04:590,,,
0.611,1.7577,10.3423,0.3354,0.81,9.7708,0.2024,-1.9927,0.2863,0.3836,0.3865,-0.4144,10.564,-10.77,-12.21,-33.11,135.08,-3.73,-2.11,2,1013.56,53.939,30.453472,-84.31873,165.6,154.7645462,,0,55.329033,,0 / 18,24506,2018-04-21 23:51:04:690,,,
-0.0825,2.1489,9.5023,-0.5662,1.9775,9.5919,-1.0246,-0.6179,-1.0387,0.959,0.4762,-0.3548,10.564,-8.31,-14.49,-33.02,141.55,-6.79,-0.11,2,1013.56,53.939,30.453472,-84.31873,165.6,154.7645462,,0,55.329033,,0 / 18,24605,2018-04-21 23:51:04:789,,,
-1.6982,3.816,10.4035,0.3231,1.3032,9.7177,-0.2521,-1.3087,-3.1595,-1.5321,-1.4434,-0.4353,10.564,-7.83,-15.25,-31.59,146.77,-7.63,-1.9,2,1013.56,53.939,30.453472,-84.31873,165.6,154.7645462,,0,55.329033,,0 / 18,24706,2018-04-21 23:51:04:890,,,
1.7654,2.153,12.1791,1.592,-0.1011,9.6794,-0.5133,-3.1956,-2.9886,-0.9268,-1.4258,-0.2036,10.564,-12.21,-10.87,-32.89,150.27,0.59,-9.34,2,1013.56,54.538,30.453472,-84.31873,165.6,154.7645462,,0,55.329033,,0 / 18,24806,2018-04-21 23:51:04:990,,,
-0.0828,-0.2657,9.265,2.1454,-0.832,9.5363,1.7688,1.0221,1.9337,-0.7274,-1.1942,-1.1305,10.564,-13.44,-8.83,-34.91,157.55,4.87,-12.68,2,1013.54,54.538,30.453472,-84.31873,165.6,154.7645462,,0,55.329033,,0 / 18,24905,2018-04-21 23:51:05:089,,,
-0.1787,-4.2147,8.008,3.4366,1.849,9.0004,4.887,6.538,0.4069,4.7865,0.8534,0.3074,10.564,-16.67,-13.59,-31.25,157.21,2.56,-18.1,2,1013.54,54.538,30.453472,-84.31873,165.6,154.7645462,,0,55.329033,,0 / 18,25005,2018-04-21 23:51:05:189,,,
-0.5174,6.1794,0.3286,3.6836,4.9293,7.64,5.112,-1.4156,9.066,3.3287,-0.5477,-0.2947,10.564,-16.71,-26.69,-16,145.95,-26.09,-21,2,1013.54,54.499,30.453472,-84.31873,165.6,154.7645462,,0,55.329033,,0 / 18,25106,2018-04-21 23:51:05:290,,,
1.2997,2.3975,7.4857,4.5268,3.2179,8.0864,-2.412,1.5727,-4.3596,-2.7642,-1.5577,3.0305,7.395,-22.6,-20.56,-19.84,135.35,-19.15,-29.24,2,1013.54,54.499,30.453472,-84.31873,165.6,154.7645462,,0,55.329033,,0 / 18,25206,2018-04-21 23:51:05:390,,,
9.6874,-1.763,4.1015,7.6628,-1.2542,5.9953,-3.3004,1.429,-1.445,-0.7811,-2.153,4.5107,7.395,-31.83,-10.76,-18.85,119.31,-5.71,-38.29,2,1013.59,54.499,30.453472,-84.31873,165.6,154.7645462,,0,55.329033,,0 / 18,25306,2018-04-21 23:51:05:490,,,
20.8724,-7.1705,4.4425,8.905,-3.6939,1.8143,-15.8261,-0.0569,0.601,3.4227,-8.411,2.9878,7.395,-43.65,13.69,12.04,96.56,22.12,-78.48,2,1013.54,55.728,30.453472,-84.31873,165.6,154.7645462,,0,55.329033,,0 / 18,25406,2018-04-21 23:51:05:590,,,
9.6826,-5.0519,-2.3936,8.7718,-3.5669,-2.5629,-0.8927,1.598,-4.4967,-1.1432,-0.9733,-0.0126,7.395,-31.81,19.89,35.22,81.01,21.32,-106.29,0,1013.54,55.728,30.453472,-84.31873,165.6,154.7645462,,0,55.329033,,0 / 18,25506,2018-04-21 23:51:05:690,,,
8.4198,-5.1449,1.9236,8.8864,-3.5075,-2.2286,1.4012,0.2398,-2.4987,0.1002,1.1586,-0.1851,7.395,-32.71,18.44,35.57,85.25,20.95,-104.08,0,1013.57,55.728,30.453472,-84.31873,165.6,154.7645462,,0,55.329033,,0 / 18,25605,2018-04-21 23:51:05:789,,,
10.7151,-2.2013,-2.1312,9.137,-3.2158,-1.5525,-2.2944,-1.013,1.0663,2.4164,-0.3719,-1.1767,7.395,-34.31,20.62,31.72,76.25,20.15,-100.29,0,1013.58,55.728,30.453472,-84.31873,165.6,154.7645462,,0,55.329033,,0 / 18,25706,2018-04-21 23:51:05:890,,,
8.588,-3.1756,-1.048,9.4316,-2.6516,-0.4993,-1.1984,0.4154,-2.6677,0.1802,1.2142,-0.4062,7.395,-36.44,22.82,28.46,65.58,16.22,-94.21,0,1013.58,54.943,30.453472,-84.31873,165.6,154.7645462,,0,55.329033,,0 / 18,25805,2018-04-21 23:51:05:989,,,
7.3576,-3.4519,2.1425,9.3402,-2.9669,0.4409,-0.1148,-0.4721,-5.5111,1.3638,1.2756,0.7897,3.169,-38.26,26.78,22.71,59.51,17.6,-87.3,0,1013.58,54.943,30.453472,-84.31873,165.6,154.7645462,,0,55.329033,,0 / 18,25905,2018-04-21 23:51:06:089,,,
5.0146,-5.6076,-0.7948,8.8819,-4.0997,0.7354,6.4488,4.8228,-1.3313,1.7906,-0.8904,0.9541,3.169,-36.39,30.46,23.03,57.5,20.29,-85.89,0,1013.6,54.943,30.453472,-84.31873,165.6,154.7645462,,0,55.329033,,0 / 18,26005,2018-04-21 23:51:06:189,,,
12.2239,-4.966,1.6967,7.9863,-5.6916,0.2449,-2.3515,-0.1585,0.3094,0.0163,-0.5209,2.3905,3.169,-28.35,39.97,24.42,55.99,35.46,-88.24,0,1013.6,53.734,30.453472,-84.31873,165.6,154.7645462,,0,55.329033,,0 / 18,26107,2018-04-21 23:51:06:291,,,
5.1325,-7.5906,0.7176,6.3119,-7.5095,0.0636,0.4708,1.5594,-0.4018,-0.0435,-0.0464,1.4928,3.169,-20.5,46.36,26.2,61.06,49.95,-89.42,0,1013.58,53.734,30.453472,-84.31873,165.6,154.7645462,,0,55.329033,,0 / 18,26206,2018-04-21 23:51:06:390,,,
6.8345,-13.7764,0.4039,5.3243,-8.2037,-0.7664,-4.4357,5.4385,-0.5604,-0.1335,-1.4814,1.0867,3.169,-16.97,47.29,27.3,66.04,55.32,-93.16,0,1013.71,53.734,30.453472,-84.31873,165.6,154.7645462,,0,55.329033,,0 / 18,26306,2018-04-21 23:51:06:490,,,
5.3459,-8.5449,-0.9211,5.3788,-8.1883,-0.5057,0.48,-0.8532,-0.3639,0.2621,-0.1504,0.383,3.169,-15.05,48.17,27.56,66.01,56.58,-95.37,0,1013.71,52.28,30.453472,-84.31873,165.6,154.7645462,,0,55.329033,,0 / 18,26408,2018-04-21 23:51:06:592,,,
4.4739,-8.6564,0.0677,5.4299,-8.1371,-0.7345,2.4319,-0.3917,-1.3375,0.2792,-0.5821,-0.095,3.169,-13.25,48.43,28.01,65.55,57.95,-95.97,0,1013.77,52.28,30.453472,-84.31873,165.6,154.7645462,,0,55.329033,,0 / 18,26506,2018-04-21 23:51:06:690,,,
5.2298,-8.466,-0.0977,5.3751,-8.1809,-0.6462,0.2034,-1.2967,0.2212,-0.0097,0.6055,0.5015,0.71,-14.43,48.29,27.58,65.13,56.5,-96.86,0,1013.77,52.28,30.453472,-84.31873,165.6,154.7645462,,0,55.329033,,0 / 18,26606,2018-04-21 23:51:06:790,,,
5.1266,-9.8722,0.2238,4.8673,-8.5169,-0.0885,-0.9238,0.9748,-0.5975,0.0699,0.6848,0.4333,0.71,-13.53,48.55,27.65,65.49,58.18,-94.04,0,1013.78,52.815,30.453472,-84.31873,165.6,154.7645462,,0,55.329033,,0 / 18,26705,2018-04-21 23:51:06:889,,,
5.7051,-10.2008,-0.2136,5.0141,-8.3806,-0.9275,-1.5815,2.0109,-0.401,-0.9466,-0.3815,-0.2947,0.71,-13.75,47.74,28.03,69.79,60.23,-94.31,0,1013.76,52.815,30.453472,-84.31873,165.6,154.7645462,,0,55.329033,,0 / 18,26806,2018-04-21 23:51:06:990,,,
4.0754,-5.1553,-1.0521,4.9148,-8.4233,-1.0624,-0.8155,-0.026,0.8559,-0.2419,0.2231,0.0694,0.71,-13.62,46.01,29.93,76.38,59.16,-102.2,0,1013.82,52.815,30.453472,-84.31873,165.6,154.7645462,,0,55.329033,,0 / 18,26907,2018-04-21 23:51:07:091,,,
5.4821,-8.7372,-0.9672,4.7995,-8.3931,-1.6602,-0.7246,0.4213,-0.4086,-0.4592,-0.0148,0.0761,0.71,-13.46,44.49,32.3,82.73,58.82,-109.08,0,1013.82,50.96,30.453472,-84.31873,165.6,154.7645462,,0,55.329033,,0 / 18,27005,2018-04-21 23:51:07:189,,,
3.841,-7.8151,-1.6728,4.7507,-8.2176,-2.4776,1.2973,-1.0441,-0.3363,-1.4924,-0.3861,-0.2756,0.71,-12.6,43.02,35.7,90.25,56.9,-117.54,0,1013.74,50.96,30.453472,-84.31873,165.6,154.7645462,,0,55.329033,,0 / 18,27106,2018-04-21 23:51:07:290,,,
4.8988,-7.2142,-3.6473,4.6458,-7.7435,-3.8329,-0.257,-1.0513,0.8003,-0.979,-0.6885,-0.1126,0.71,-11.38,37.57,40.39,95.53,53.17,-124.45,0,1013.74,50.96,30.453472,-84.31873,165.6,154.7645462,,0,55.329033,,0 / 18,27207,2018-04-21 23:51:07:391,,,
4.0276,-5.5776,-3.5846,4.9284,-7.4002,-4.1454,0.4425,-2.5688,0.8214,-0.247,-0.2091,-0.4795,0.71,-10.08,35.71,40.93,99.35,50.43,-131.93,0,1013.68,50.96,30.453472,-84.31873,165.6,154.7645462,,0,55.329033,,0 / 18,27306,2018-04-21 23:51:07:490,,,
5.2496,-7.095,-5.0091,5.0505,-7.4675,-3.8685,-0.1051,0.4518,0.6477,0.4013,-0.003,0.0016,0.71,-11.59,36.71,40.52,96.15,48.97,-130.07,0,1013.73,45.285,30.453472,-84.31873,165.6,154.7645462,,0,55.329033,,0 / 18,27406,2018-04-21 23:51:07:590,,,Out
5.0998,-6.6252,-6.4374,4.8255,-7.4474,-4.1817,-0.1107,-0.9203,2.5181,-0.0621,-0.5403,0.0981,0.71,-10.64,37.29,39.79,94.43,50.17,-128.12,0,1013.74,45.285,30.453472,-84.31873,165.6,154.7645462,,0,55.329033,,0 / 18,27506,2018-04-21 23:51:07:690,,,Out
4.3174,-6.8601,-5.7476,4.8409,-7.4789,-4.1071,1.124,2.7884,1.3839,0.8242,-0.3551,-0.0076,0.71,-9.67,37.95,40.23,92.27,49.67,-130.31,0,1013.74,45.285,30.453472,-84.31873,165.6,154.7645462,,0,55.329033,,0 / 18,27606,2018-04-21 23:51:07:790,,,Out
3.8774,-9.8663,-2.4246,4.7829,-7.857,-3.4098,0.7057,0.9694,-1.3108,0.6467,0.1926,0.1055,0.71,-8.55,40.26,39.74,91.45,52.07,-128.6,0,1013.8,39.381,30.453472,-84.31873,165.6,154.7645462,,0,55.329033,,0 / 18,27706,2018-04-21 23:51:07:890,,,Out
2.0537,-6.7823,-0.1792,4.7703,-7.9931,-3.0969,2.7217,-1.6541,-3.3908,0.3411,0.9602,0.3103,0.71,-10.83,41.07,37.32,90.37,54.57,-122.99,0,1013.8,39.381,30.453472,-84.31873,165.6,154.7645462,,0,55.329033,,0 / 18,27806,2018-04-21 23:51:07:990,,,Out
5.4667,-6.9861,-1.4613,5.3068,-7.9608,-2.168,0.5655,-1.2048,-0.8329,0.6377,0.473,-0.1428,0.71,-14.58,42.45,35.65,85.4,54.24,-112.22,0,1013.8,39.381,30.453472,-84.31873,165.6,154.7645462,,0,55.329033,,0 / 18,27905,2018-04-21 23:51:08:089,,,Out
5.7473,-7.914,-1.4171,5.4828,-8.0483,-1.1833,-0.4577,-0.1828,0.2659,0.4427,0.8665,-0.0076,0.71,-16.06,44.17,31.23,77.83,54.93,-106.83,0,1013.82,39.424,30.453472,-84.31873,165.6,154.7645462,,0,55.329033,,0 / 18,28006,2018-04-21 23:51:08:190,,,Out
6.0878,-6.6549,-2.5804,5.3489,-8.1744,-0.8969,-1.2559,-1.5667,1.0965,0.3377,0.382,0.4312,0.71,-17.72,44.21,31.15,78.57,55.13,-102.18,0,1013.82,39.424,30.453472,-84.31873,165.6,154.7645462,,0,55.329033,,0 / 18,28106,2018-04-21 23:51:08:290,,,Out
5.9288,-8.4916,-0.7339,5.2665,-8.2712,-0.2943,-1.1682,-0.2724,0.2209,0.4738,0.1309,0.0314,0.71,-18.04,45.94,29.14,75.73,57.53,-96.59,0,1013.89,39.424,30.453472,-84.31873,165.6,154.7645462,,0,55.329033,,0 / 18,28206,2018-04-21 23:51:08:390,,,Out
7.2944,-10.0601,-1.2156,5.1692,-8.3375,0.0292,-3.644,1.6831,0.1643,-0.0407,0.549,0.1683,0.71,-19.39,47.27,26.65,72.11,58.2,-89.68,0,1013.88,39.424,30.453472,-84.31873,165.6,154.7645462,,0,55.329033,,0 / 18,28307,2018-04-21 23:51:08:491,,,Out
3.4073,-9.3562,1.6428,5.3265,-8.1465,-1.2245,4.2526,1.2263,-0.7914,-0.5404,-0.9522,-0.285,0.71,-16.86,43.79,32.02,80.05,56.14,-102.95,0,1013.88,56.995,30.453472,-84.31873,165.6,154.7645462,,0,55.329033,,0 / 18,28405,2018-04-21 23:51:08:589,,,Out
5.4895,-7.4069,-2.0105,5.3523,-7.5327,-3.2936,0.0545,-0.537,-0.4184,-1.8046,-0.3706,-0.2149,0.71,-16.29,40.74,36.09,88.43,53.68,-113.95,0,1013.56,56.995,30.453472,-84.31873,165.6,154.7645462,,0,55.329033,,0 / 18,28505,2018-04-21 23:51:08:689,,,Out
4.8441,-6.131,-2.9937,5.1243,-7.426,-3.8513,0.4885,-1.8284,-0.4127,0.3082,-1.3459,-0.1118,0.71,-13.77,36.09,41.33,98.39,49.2,-126.93,0,1013.56,56.995,30.453472,-84.31873,165.6,154.7645462,,0,55.329033,,0 / 18,28606,2018-04-21 23:51:08:790,,,Out
1.4932,-4.9004,-3.4034,4.8838,-7.6007,-3.8229,3.9034,-3.1343,-0.2496,0.2526,-0.5145,0.016,0.71,-9.97,36.78,40.76,95.01,50.79,-128.05,0,1013.45,57.414,30.453472,-84.31873,165.6,154.7645462,,0,55.329033,,0 / 18,28706,2018-04-21 23:51:08:890,,,Out
4.7508,-7.8377,-4.3577,4.8904,-7.7935,-3.4031,-1.28,4.6038,1.8557,0.2728,-0.1061,0.0263,0.71,-11.05,38.08,39.64,94.14,50.79,-128.05,0,1013.54,57.414,30.453472,-84.31873,165.6,154.7645462,,0,55.329033,,0 / 18,28806,2018-04-21 23:51:08:990,,,Out
5.2739,-7.3087,-5.752,4.9669,-7.4174,-4.068,0.4095,-3.2692,3.6925,-0.6441,-0.5154,-0.4552,0.71,-10.56,38.76,40.69,93.11,50.92,-127.08,0,1013.69,57.414,30.453472,-84.31873,165.6,154.7645462,,0,55.329033,,0 / 18,28906,2018-04-21 23:51:09:090,,,Out
3.6313,-11.2663,-1.568,4.7467,-7.6929,-3.8111,0.901,-0.394,-2.6078,0.1571,0.2761,0.2386,0.71,-9.36,40.08,40.18,90.72,51.65,-128.76,0,1013.69,58.302,30.453472,-84.31873,165.6,154.7645462,,0,55.329033,,0 / 18,29006,2018-04-21 23:51:09:190,,,Out
5.949,-8.6323,-0.7834,5.199,-7.8031,-2.8842,-1.2143,-0.5135,-1.2381,0.3378,0.9834,-0.2806,0.71,-12.47,40.07,37.52,87.42,52.69,-119.02,0,1013.64,58.302,30.453472,-84.31873,165.6,154.7645462,,0,55.329033,,0 / 18,29106,2018-04-21 23:51:09:290,,,Out
5.3943,-7.8036,-1.4433,5.5399,-7.8836,-1.8422,0.1763,-0.1335,-0.0201,0.6489,0.6329,-0.0604,0.71,-14.81,41.84,36.76,83.54,52.18,-113.72,0,1013.64,58.302,30.453472,-84.31873,165.6,154.7645462,,0,55.329033,,0 / 18,29206,2018-04-21 23:51:09:390,,,Out
5.0076,-7.2498,-1.561,5.5067,-8.0174,-1.278,-0.1069,-0.8878,0.7641,0.5899,0.7119,0.3914,0.71,-15.78,43.93,32.86,77.13,54.81,-103.07,0,1013.7,58.828,30.453472,-84.31873,165.6,154.7645462,,0,55.329033,,0 / 18,29305,2018-04-21 23:51:09:489,,,Out
6.1367,-8.0337,-0.9306,5.1301,-8.3433,-0.5542,-1.0437,-0.0111,-0.0735,0.4609,0.3506,0.5508,0.71,-16.34,46.05,29.89,74.25,58.27,-96.17,0,1013.83,58.828,30.453472,-84.31873,165.6,154.7645462,,0,55.329033,,0 / 18,29406,2018-04-21 23:51:09:590,,,Out
7.2085,-8.3208,-1.4267,5.2566,-8.2772,-0.305,-2.7312,3.1973,1.23,0.2499,0.2648,-0.024,0.71,-17.49,46.9,28.31,70.52,57.54,-93.32,0,1013.77,58.828,30.453472,-84.31873,165.6,154.7645462,,0,55.329033,,0 / 18,29506,2018-04-21 23:51:09:690,,,Out
6.0228,-8.1785,2.0307,5.144,-8.3074,-0.8735,-1.6374,-0.2355,-2.8328,-0.9731,-1.4548,-0.2051,0.71,-17.1,46.41,28.91,72.93,58.18,-92.73,0,1013.77,58.828,30.453472,-84.31873,165.6,154.7645462,,0,55.329033,,0 / 18,29606,2018-04-21 23:51:09:790,,,Out
5.802,-10.0545,-1.3754,5.1066,-7.8307,-2.9731,-0.8507,2.5031,-1.5561,-1.6557,-0.8279,-0.0969,0.71,-13.53,42.35,35.87,85.99,55.83,-111.27,0,1013.46,60.746,30.453472,-84.31873,165.6,154.7645462,,0,55.329033,,0 / 18,29705,2018-04-21 23:51:09:889,,,Out
4.3178,-7.3261,-2.832,5.0417,-7.5734,-3.6688,0.8237,-1.8007,-0.1695,-0.4384,-0.9527,-0.2502,0.71,-11.91,37.75,40.59,94.3,50.53,-126.04,0,1013.46,60.746,30.453472,-84.31873,165.6,154.7645462,,0,55.329033,,0 / 18,29805,2018-04-21 23:51:09:989,,,Out
2.64,-4.5111,-2.6774,5.0462,-7.3531,-4.0871,2.6561,-3.6415,-1.8421,0.0953,-1.0265,-0.3672,0.71,-9.69,36.92,41.02,94.1,49.67,-129.48,0,1013.42,60.746,30.453472,-84.31873,165.6,154.7645462,,0,55.329033,,0 / 18,29905,2018-04-21 23:51:10:089,,,Out
3.6846,-6.1929,-3.8484,5.1364,-7.5998,-3.4781,-0.3591,1.7592,2.4787,1.0005,0.1902,0.3,0.71,-9.65,39.03,39.59,88.19,50.78,-124.1,0,1013.56,63.578,30.453472,-84.31873,165.6,154.7645462,,0,55.329033,,0 / 18,30007,2018-04-21 23:51:10:191,,,Out
5.4417,-7.3039,-5.4465,5.0619,-7.468,-3.8527,-0.3719,2.013,0.5286,0.4112,-0.538,-0.2446,0.71,-10.16,38.39,40.08,89.69,49.58,-127.28,0,1013.56,63.578,30.453472,-84.31873,165.6,154.7645462,,0,55.329033,,0 / 18,30106,2018-04-21 23:51:10:290,,,Out
4.5264,-11.6812,-2.0862,4.932,-7.7032,-3.5457,0.8533,0.3343,-4.6623,0.3823,0.1527,0.0639,0.71,-8.23,40.39,40.01,87.26,51.74,-125.71,0,1013.61,63.578,30.453472,-84.31873,165.6,154.7645462,,0,55.329033,,0 / 18,30206,2018-04-21 23:51:10:390,,,Out
4.6065,-8.7113,-0.8358,5.3673,-7.693,-2.8715,-0.6588,-3.5254,-3.0645,0.9644,0.8631,0.2379,0.71,-11.61,39.66,38.24,89.08,52.08,-122.73,0,1014.19,65.167,30.453472,-84.31873,165.6,154.7645462,,0,55.329033,,0 / 18,30306,2018-04-21 23:51:10:490,,,Out
5.2177,-7.0924,-1.7116,5.8299,-7.6826,-1.7964,0.8941,0.2931,-0.4464,0.2543,0.9225,-0.6278,0.71,-16.15,40.79,35.79,82.17,51.28,-111.31,0,1014.19,65.167,30.453472,-84.31873,165.6,154.7645462,,0,55.329033,,0 / 18,30407,2018-04-21 23:51:10:591,,,Out
5.9897,-8.4119,-3.1598,5.6882,-7.838,-1.5641,0.6806,1.3267,1.7656,0.3848,0.2692,0.054,0.71,-17.55,42.27,33.81,81.5,53.03,-105.37,0,1014.12,65.167,30.453472,-84.31873,165.6,154.7645462,,0,55.329033,,0 / 18,30505,2018-04-21 23:51:10:689,,,
6.1216,-14.1395,-0.4568,5.4496,-8.1535,-0.2433,-0.6789,5.643,-4.5096,1.4053,0.1794,0.0902,0.71,-17.99,43.39,31.74,75.94,52.96,-100.7,0,1014.38,64.435,30.453472,-84.31873,165.6,154.7645462,,0,55.329033,,0 / 18,30605,2018-04-21 23:51:10:789,,,
5.9346,-12.4139,2.8371,5.4632,-8.095,0.9282,-0.6196,6.1454,3.7178,-0.6601,6.5175,-1.0021,0.71,-21.15,46.24,25.57,66.8,55.61,-80.36,0,1014.38,64.435,30.453472,-84.31873,165.6,154.7645462,,0,55.329033,,0 / 18,30706,2018-04-21 23:51:10:890,,,
2.1926,-9.341,-1.4119,3.8336,-7.5752,4.9149,2.7636,1.6356,7.4362,-0.3246,7.7041,-3.0531,0.71,-32.34,44.25,3.22,61.69,50.55,-37.95,0,1013.86,64.435,30.453472,-84.31873,165.6,154.7645462,,0,55.329033,,0 / 18,30806,2018-04-21 23:51:10:990,,,
-8.4202,-10.4216,0.5168,2.9045,-6.3526,6.888,11.4685,3.5864,6.3139,-0.3703,4.8193,-4.98,1.42,-34.76,26.85,-20.41,90.39,40.36,-22.86,2,1013.56,63.408,30.453472,-84.31873,165.6,154.7645462,,0,55.329033,,0 / 18,30905,2018-04-21 23:51:11:089,,,
-4.0666,-8.8024,1.0194,0.8339,-7.5358,6.2251,6.7957,2.3665,0.7169,-3.1194,5.1755,-1.3728,1.42,-27.69,28.34,-27.9,104.57,50.19,-7.63,2,1013.56,63.408,30.453472,-84.31873,165.6,154.7645462,,0,55.329033,,0 / 18,31006,2018-04-21 23:51:11:190,,,
-6.5631,-11.4611,3.8431,-0.7533,-8.5114,4.8192,6.3448,3.0516,1.1083,-1.1739,3.5124,-1.046,1.42,-12.73,34.03,-33.78,129.47,58.21,0.41,2,1013.41,63.408,30.453472,-84.31873,165.6,154.7645462,,0,55.329033,,0 / 18,31105,2018-04-21 23:51:11:289,,,
-3.8462,-9.9008,3.0781,-1.7539,-8.6992,4.1814,1.7551,3.057,1.0997,-0.785,2.449,0.007,1.42,-0.67,38.24,-33.82,125.11,62.47,22.76,2,1013.41,63.408,30.453472,-84.31873,165.6,154.7645462,,0,55.329033,,0 / 18,31206,2018-04-21 23:51:11:390,,,
-7.816,-14.5803,2.6924,-1.2404,-9.2824,2.9214,6.0666,4.2783,-1.3837,-0.7458,1.5016,-1.179,1.42,3.61,39.13,-32.24,136.26,66.46,28.06,2,1013.4,58.056,30.453472,-84.31873,165.6,154.7645462,,0,55.329033,,0 / 18,31305,2018-04-21 23:51:11:489,,,
-2.6099,-8.1148,3.5069,-2.4462,-9.2979,1.9495,2.1224,-0.1916,-1.9035,-0.4032,3.364,0.4067,1.42,7.39,42.99,-29.22,146.37,73.8,33.11,2,1013.39,58.056,30.453472,-84.31873,165.6,154.7645462,,0,55.329033,,0 / 18,31405,2018-04-21 23:51:11:589,,,
-1.6975,-7.109,2.3167,-2.8722,-9.0796,2.3552,-0.8098,-1.6186,0.3754,2.2341,2.598,-0.459,1.42,22.07,40.16,-24.64,160.59,67.75,50.65,2,1013.37,58.056,30.453472,-84.31873,165.6,154.7645462,,0,55.329033,,0 / 18,31506,2018-04-21 23:51:11:690,,,
-1.7677,-9.8656,2.1358,-2.4437,-8.4549,4.3334,-0.7793,1.4226,2.1086,2.7962,2.6575,-1.3637,51.765,28.36,34.83,-24.6,223.25,59.53,29.42,2,1013.37,58.398,30.453472,-84.31873,165.6,154.7645462,,0,55.329033,,0 / 18,31605,2018-04-21 23:51:11:789,,,
-5.145,-10.9125,1.3195,-1.7095,-8.4762,4.6333,4.5178,1.3091,-2.0914,0.1198,1.5451,-2.6359,51.765,28.87,36.11,-22.88,244.46,59.77,20.25,2,1013.43,58.398,30.453472,-84.31873,165.6,154.7645462,,0,55.329033,,0 / 18,31706,2018-04-21 23:51:11:890,,,
-4.5551,-10.1475,6.8712,-1.5988,-9.0771,3.3595,3.1483,1.3861,-3.4396,-1.4676,2.2176,-0.8701,51.765,29.25,43.24,-14.48,264.56,65.85,16.74,2,1013.43,58.398,30.453472,-84.31873,165.6,154.7645462,,0,55.329033,,18-Aug,31806,2018-04-21 23:51:11:990,,,
-4.1011,-4.5644,3.542,-2.0122,-8.5558,4.3573,1.5498,-4.0033,1.6087,2.3823,1.3485,-0.1598,51.765,32.37,40.65,-12.24,267.28,60.71,24.79,2,1013.39,60.961,30.453472,-84.31873,165.6,154.7645462,,0,55.329033,,18-Aug,31906,2018-04-21 23:51:12:090,,,
-6.515,-5.8703,5.7191,-2.3383,-8.1881,4.8707,4.2386,-1.8406,-1.2529,-0.1837,1.3335,-0.0288,51.765,32.22,41.98,-11.65,279.91,55.74,22.49,2,1013.43,60.961,30.453472,-84.31873,165.6,154.7645462,,0,55.329033,,18-Aug,32005,2018-04-21 23:51:12:189,,,
-4.5929,-6.5045,4.6473,-2.2197,-7.2506,6.2239,3.145,-1.0857,0.744,1.0119,-0.7786,0.6283,51.765,34.06,40.59,-10.07,277.4,54.63,28.75,2,1013.5,60.961,30.453472,-84.31873,165.6,154.7645462,,0,55.329033,,18-Aug,32106,2018-04-21 23:51:12:290,,,
0.0251,-4.8789,2.9773,-0.7372,-5.9194,7.788,-2.1178,-0.1811,7.0319,2.2469,-3.6967,-0.719,51.765,27.82,33.5,-26.38,291.28,37.11,5.41,2,1013.5,60.961,30.453472,-84.31873,165.6,154.7645462,,0,55.329033,,18-Aug,32207,2018-04-21 23:51:12:391,,,
-5.5409,-10.6706,7.1027,2.0076,-7.1785,6.3777,11.2819,2.8975,-4.9127,-2.1003,-1.0344,-1.8157,15.847,16.64,41.24,-27.82,296.24,47.03,-17.47,2,1013.65,58.127,30.453472,-84.31873,165.6,154.7645462,,0,55.329033,,18-Aug,32306,2018-04-21 23:51:12:490,,,
0.4574,-8.9376,14.754,1.5692,-6.7253,6.9674,-0.1446,2.461,6.1904,2.6362,-0.4941,2.7468,15.847,15.66,38.7,-29.69,295.81,43.28,-12.69,2,1013.65,58.127,30.453472,-84.31873,165.6,154.7645462,,0,55.329033,,18-Aug,32406,2018-04-21 23:51:12:590,,,
-0.4994,-5.6576,9.2366,-0.1803,-5.9299,7.8128,3.3317,1.00E-04,0.7536,0.4281,-0.7997,1.7893,15.847,20.93,27.81,-33.89,272.33,38.9,-1.96,2,1013.62,58.127,30.453472,-84.31873,165.6,154.7645462,,0,55.329033,,18-Aug,32506,2018-04-21 23:51:12:690,,,
-1.5785,-6.5278,5.1817,-0.2735,-4.7734,8.566,1.0379,0.8357,2.5716,0.7733,-1.948,3.2878,15.847,18.51,19.76,-38.51,247.1,35.68,3.23,2,1013.4,52.415,30.453472,-84.31873,165.6,154.7645462,,0,55.329033,,18-Aug,32605,2018-04-21 23:51:12:789,,,
1.476,-4.0261,10.0732,1.4056,-3.7072,8.9731,-2.5988,-6.0194,-1.0588,3.2488,-3.3117,4.3574,15.847,9.64,11.86,-41.92,220.6,29.12,1.83,2,1013.4,52.415,30.453472,-84.31873,165.6,154.7645462,,0,55.329033,,18-Aug,32705,2018-04-21 23:51:12:889,,,
1.3089,1.6818,8.787,3.8174,-0.882,8.9937,5.069,-0.2066,1.9381,3.5997,-2.4335,2.4756,15.847,-9.77,-6.8,-36.33,166.64,8.9,-10.9,2,1013.38,52.415,30.453472,-84.31873,165.6,154.7645462,,0,55.329033,,0 / 18,32806,2018-04-21 23:51:12:990,,,
6.7996,6.8763,9.5916,5.2372,-0.951,8.2404,-0.8141,-4.7277,3.303,-1.9559,-2.9104,-3.0456,15.847,-25.23,-6.69,-29.66,154.96,5.56,-32.44,2,1013.42,55.191,30.453472,-84.31873,165.6,154.7645462,,0,55.329033,,0 / 18,32906,2018-04-21 23:51:13:090,,,
4.1823,-0.8428,13.6018,7.3412,-0.8735,6.4483,3.6661,-0.4978,-0.997,-0.2145,1.2613,-2.9756,11.621,-25.86,-5.23,-29.54,212.39,5.11,-48.7,2,1013.42,55.191,30.453472,-84.31873,165.6,154.7645462,,0,55.329033,,0 / 18,33006,2018-04-21 23:51:13:190,,,
5.1383,-2.4632,4.4554,7.3824,0.5144,6.4399,1.9281,3.3039,1.4772,-1.2177,-0.5409,-3.0693,11.621,-20.16,-10.81,-30.64,224.43,-3.34,-46.5,2,1013.45,55.191,30.453472,-84.31873,165.6,154.7645462,,0,55.329033,,0 / 18,33107,2018-04-21 23:51:13:291,,,
9.3832,-1.0788,9.289,8.4231,0.951,4.938,-2.4308,0.8774,-5.3401,1.0728,-2.0083,-0.8365,11.621,-22.36,-9.59,-30.19,245.76,-5.56,-59.62,2,1013.45,49.922,30.453472,-84.31873,165.6,154.7645462,,0,55.329033,,0 / 18,33205,2018-04-21 23:51:13:389,,,
10.509,4.2338,8.4641,8.3686,2.6815,4.3604,-2.2574,-1.6521,-4.3805,-0.3202,-0.6763,-2.0065,11.621,-22.35,-13.4,-27.73,245.99,-11.39,-61.51,2,1013.48,49.922,30.453472,-84.31873,165.6,154.7645462,,0,55.329033,,0 / 18,33307,2018-04-21 23:51:13:491,,,
9.1595,1.6199,9.4307,8.0195,2.6033,5.0146,1.7794,0.5783,-1.1834,-4.3543,-0.0238,-1.7104,11.621,-18.31,-4.55,-35.36,281.66,-15.39,-57.98,2,1013.51,49.922,30.453472,-84.31873,165.6,154.7645462,,0,55.329033,,0 / 18,33405,2018-04-21 23:51:13:589,,,
7.643,2.3764,4.5469,8.876,0.2523,4.17,-3.0596,-5.0677,-2.8792,-3.7294,-1.4652,-0.0948,11.621,-20.36,5.56,-37.25,301.59,-9.91,-56.74,2,1013.53,49.922,30.453472,-84.31873,165.6,154.7645462,,0,55.329033,,0 / 18,33506,2018-04-21 23:51:13:690,,,
11.6587,4.6591,7.3034,9.2343,-0.4467,3.2808,-1.6182,-4.6191,-5.1669,-3.2914,0.4966,-0.5807,11.621,-28.21,21.46,-31.44,314.22,2.61,-70.44,2,1013.53,55.618,30.453472,-84.31873,165.6,154.7645462,,0,55.329033,,0 / 18,33606,2018-04-21 23:51:13:790,,,
13.5558,7.619,7.585,7.2256,-0.7187,6.5962,-5.6385,-7.8622,0.5177,-0.5728,3.9796,-1.4622,11.621,-16.18,25.84,-35.62,325.84,4.2,-47.61,2,1013.55,55.618,30.453472,-84.31873,165.6,154.7645462,,0,55.329033,,0 / 18,33706,2018-04-21 23:51:13:890,,,
3.8822,0.809,5.1201,2.9103,-1.2704,9.2818,-1.557,-1.3386,3.2284,-1.9888,5.1113,-2.4533,31.693,-7.19,26.77,-39.52,330.11,0.99,-31.82,2,1013.55,55.618,30.453472,-84.31873,165.6,154.7645462,,0,55.329033,,0 / 18,33806,2018-04-21 23:51:13:990,,,
4.0544,-1.8408,7.509,1.8692,-1.6006,9.4963,-2.1598,0.6407,1.4265,0.3678,1.6854,1.0682,31.693,7.74,34.42,-35.24,332.61,9.39,-11.14,2,1013.49,54.295,30.453472,-84.31873,165.6,154.7645462,,0,55.329033,,0 / 18,33906,2018-04-21 23:51:14:090,,,
1.9711,-1.9801,4.4292,0.6817,-1.1899,9.7137,-1.1029,0.7787,5.5217,0.5889,1.094,1.1911,31.693,17.98,32.12,-35.01,322.53,7.24,-5.24,2,1013.53,54.295,30.453472,-84.31873,165.6,154.7645462,,0,55.329033,,0 / 18,34006,2018-04-21 23:51:14:190,,,
1.2288,-3.2975,5.1478,1.3837,-1.884,9.5274,-3.8317,2.8869,-3.398,-1.5373,-1.3448,2.2965,31.693,17.93,32.28,-35.26,317.86,11.07,-8.26,2,1013.57,54.295,30.453472,-84.31873,165.6,154.7645462,,0,55.329033,,0 / 18,34106,2018-04-21 23:51:14:290,,,
1.7011,-3.5597,9.2587,1.1545,-3.2841,9.1716,0.2059,0.5397,-4.2957,-0.4763,-0.0772,0.2129,31.693,20.9,32.78,-34.33,311.19,17.7,-7.26,2,1013.57,54.562,30.453472,-84.31873,165.6,154.7645462,,0,55.329033,,0 / 18,34206,2018-04-21 23:51:14:390,,,
0.5779,-3.2293,9.8983,0.552,-3.1995,9.2571,-0.6009,-0.3684,-1.063,0.2504,0.804,-0.045,31.693,22.23,30.74,-32.47,307.68,19.67,-5.11,2,1013.58,54.562,30.453472,-84.31873,165.6,154.7645462,,0,55.329033,,0 / 18,34306,2018-04-21 23:51:14:490,,,
0.5478,-2.6132,10.7449,1.1052,-3.0444,9.2599,1.3858,-0.3392,-1.1139,0.3312,0.0099,-1.2289,31.693,20.03,33.51,-32.18,314.44,18.08,-6.81,2,1013.58,54.562,30.453472,-84.31873,165.6,154.7645462,,0,55.329033,,0 / 18,34406,2018-04-21 23:51:14:590,,,
0.571,-1.4171,8.1157,0.7957,-2.1066,9.548,-0.0049,-0.7709,1.4355,1.0583,0.1058,0.1219,33.806,18.93,33.56,-31.89,318.24,15.31,-6.02,2,1013.58,51.014,30.453472,-84.31873,165.6,154.7645462,,0,55.329033,,0 / 18,34505,2018-04-21 23:51:14:689,,,
-1.0981,-3.137,7.9884,-0.3932,-2.9217,9.3566,2.0032,1.4121,1.9735,-1.5473,1.8239,-0.4753,33.806,23.65,32.03,-30.88,312.83,17.33,2.41,2,1013.58,51.014,30.453472,-84.31873,165.6,154.7645462,,0,55.329033,,0 / 18,34605,2018-04-21 23:51:14:789,,,
-0.8017,-4.1836,9.2694,-1.2018,-3.5885,9.0507,-0.3338,0.4151,-0.0274,-0.1924,0.7238,-0.7375,33.806,25.84,37.89,-25.65,317.84,21.46,7.56,2,1013.58,51.014,30.453472,-84.31873,165.6,154.7645462,,0,55.329033,,0 / 18,34706,2018-04-21 23:51:14:890,,,
-0.441,-3.9072,10.1714,-1.921,-4.1153,8.6954,-1.46,-0.3115,-0.6859,-0.2856,1.1771,-0.604,33.806,26.03,41.55,-21.42,322.46,24.1,11.24,2,1013.6,53.067,30.453472,-84.31873,165.6,154.7645462,,0,55.329033,,0 / 18,34806,2018-04-21 23:51:14:990,,,
-0.7197,-2.9785,9.6717,-1.8151,-3.7451,8.8835,-0.9041,-1.1747,1.5061,1.0354,-0.9085,0.3187,33.806,25.96,41.95,-20.7,322.49,24.8,12.46,2,1013.6,53.067,30.453472,-84.31873,165.6,154.7645462,,0,55.329033,,0 / 18,34906,2018-04-21 23:51:15:090,,,
0.0593,-1.1196,9.3731,-0.5834,-1.906,9.6054,-1.0502,-1.2091,-0.2399,1.6696,-1.2575,0.5216,33.806,24.13,36.16,-28.12,320.38,17.7,6.42,2,1013.6,53.067,30.453472,-84.31873,165.6,154.7645462,,0,55.329033,,0 / 18,35006,2018-04-21 23:51:15:190,,,
0.071,-1.2337,9.2484,-0.3177,-1.689,9.6583,-0.6217,-0.3445,-0.2261,0.1866,-0.0655,0.6215,33.806,23.15,31.56,-31.82,319.72,9.91,1.88,2,1013.59,53.067,30.453472,-84.31873,165.6,154.7645462,,0,55.329033,,0 / 18,35106,2018-04-21 23:51:15:290,,,
0.7414,-1.2214,9.4654,-0.258,-1.759,9.6476,-1.2473,-0.6367,-0.1244,-0.2368,0.0076,-0.1574,19.016,21.87,31.52,-32.04,320.5,10.33,1.53,2,1013.59,55.216,30.453472,-84.31873,165.6,154.7645462,,0,55.329033,,0 / 18,35206,2018-04-21 23:51:15:390,,,
0.1441,0.3608,10.5984,-0.1104,-1.4897,9.6956,-0.5057,-1.8613,-1.8207,0.1536,-0.2321,0.4819,19.016,21.32,31.05,-32.42,321.29,8.73,0.65,2,1013.59,55.216,30.453472,-84.31873,165.6,154.7645462,,0,55.329033,,0 / 18,35306,2018-04-21 23:51:15:490,,,
-1.5649,2.0348,9.9333,-0.1513,-0.9018,9.7673,1.6843,-3.5803,0.6968,0.4299,-1.0536,1.2692,19.016,23.62,26.84,-32.79,315.4,5.27,0.89,2,1013.58,55.216,30.453472,-84.31873,165.6,154.7645462,,0,55.329033,,0 / 18,35406,2018-04-21 23:51:15:590,,,
0.2242,0.9312,10.019,0.2186,-0.405,9.7992,0.3304,-0.9224,0.1395,0.9069,-0.5914,1.4235,19.016,21.77,19.88,-36.56,307.76,1.62,-3.98,2,1013.58,56.846,30.453472,-84.31873,165.6,154.7645462,,0,55.329033,,0 / 18,35506,2018-04-21 23:51:15:690,,,
0.431,-1.3092,7.4617,-0.959,-0.7119,9.737,-0.6105,0.351,1.9673,-0.0226,2.3625,-0.5073,19.016,24.86,23.27,-34.07,309.99,2.37,-1.28,2,1013.58,56.846,30.453472,-84.31873,165.6,154.7645462,,0,55.329033,,0 / 18,35606,2018-04-21 23:51:15:790,,,
-1.6266,0.3952,9.9821,-2.6576,-0.4988,9.43,-1.1892,-0.2116,-0.3392,0.0938,1.4172,-0.2718,19.016,30.84,24.11,-27.26,312.48,3.65,13.53,2,1013.59,56.846,30.453472,-84.31873,165.6,154.7645462,,0,55.329033,,0 / 18,35705,2018-04-21 23:51:15:889,,,
-2.1364,3.6674,11.2206,-2.5102,0.1941,9.4814,-0.2742,-3.7647,-0.427,0.7796,-0.5887,0.0807,19.016,32.78,20.69,-27.97,311.26,-1.13,14.83,2,1013.59,56.772,30.453472,-84.31873,165.6,154.7645462,,0,55.329033,,0 / 18,35807,2018-04-21 23:51:15:991,,,
-3.1502,2.9543,7.0624,-3.1656,0.2297,9.2824,0.3062,-3.1012,1.0549,0.7017,0.1612,0.1541,25.355,35.42,19.36,-26.01,308.73,-1.34,18.83,2,1013.59,56.772,30.453472,-84.31873,165.6,154.7645462,,0,55.329033,,0 / 18,35906,2018-04-21 23:51:16:090,,,
-3.5274,3.3151,10.5401,-1.8503,2.2439,9.369,0.382,-1.9483,-1.5801,1.7014,-0.9651,0.3446,25.355,34.98,16.7,-28.33,309.94,-7.06,16.59,2,1013.6,56.772,30.453472,-84.31873,165.6,154.7645462,,0,55.329033,,0 / 18,36006,2018-04-21 23:51:16:190,,,
-0.03,4.2361,11.0232,-1.3638,2.7316,9.3228,-2.5363,-1.4245,-1.0685,0.4752,-0.2411,-0.3898,25.355,29.57,12.6,-33.58,312.96,-16.17,8.32,2,1013.6,56.772,30.453472,-84.31873,165.6,154.7645462,,0,55.329033,,0 / 18,36106,2018-04-21 23:51:16:290,,,
0.4549,2.5383,10.681,-1.1465,2.5962,9.3905,-2.3235,0.9096,-0.8417,-0.0104,-0.2907,-0.0386,25.355,28.95,11.3,-33.67,309.69,-15.35,6.96,2,1013.6,54.056,30.453472,-84.31873,165.6,154.7645462,,0,55.329033,,0 / 18,36207,2018-04-21 23:51:16:391,,,
-1.1337,1.4606,9.1912,-1.2044,1.6859,9.5887,-0.8884,-2.5435,-0.0222,-1.283,0.3133,0.6246,25.355,28.59,13.25,-32.97,311.77,-15.35,6.96,2,1013.59,54.056,30.453472,-84.31873,165.6,154.7645462,,0,55.329033,,0 / 18,36307,2018-04-21 23:51:16:491,,,
-0.1651,2.2478,9.4266,-1.4035,1.4303,9.6032,-0.638,-0.1377,-3.3338,0.4137,0.2383,0.0673,25.355,29.74,14.32,-32.92,307.68,-9.63,7,2,1013.59,54.056,30.453472,-84.31873,165.6,154.7645462,,0,55.329033,,0 / 18,36406,2018-04-21 23:51:16:590,,,
3.5457,-3.3904,10.3847,-1.343,0.2868,9.7134,-3.8081,3.4911,-0.6607,-1.372,-1.2617,0.7179,25.355,28.03,19.83,-33.54,312.42,-1.68,7.87,2,1013.59,51.527,30.453472,-84.31873,165.6,154.7645462,,0,55.329033,,0 / 18,36506,2018-04-21 23:51:16:690,,,
5.2019,-2.1739,6.3143,2.8311,1.0996,9.328,-0.1819,3.2625,7.0108,0.7074,-3.4463,0.0139,25.355,10.81,13.74,-42,308.47,-6.44,-16.88,2,1013.59,51.527,30.453472,-84.31873,165.6,154.7645462,,0,55.329033,,0 / 18,36606,2018-04-21 23:51:16:790,,,
3.3154,-5.1827,5.0193,8.0963,-0.5972,5.5072,4.0495,4.4696,7.7912,-1.5285,-4.823,0.2452,31.693,0.2,17.09,-42.17,312.86,-3.6,-29.61,2,1013.61,51.527,30.453472,-84.31873,165.6,154.7645462,,0,55.329033,,0 / 18,36706,2018-04-21 23:51:16:890,,,
14.8351,-1.6367,18.7151,9.4737,-1.926,1.6658,-10.8298,-5.2227,-13.7643,3.0448,-4.6045,2.345,31.693,-29.52,22.41,-28.74,302.32,11.32,-80.03,2,1013.61,46.136,30.453472,-84.31873,165.6,154.7645462,,0,55.329033,,0 / 18,36806,2018-04-21 23:51:16:990,,,
10.9465,0.1229,-1.6869,9.5049,-2.2982,0.7825,-0.347,-1.9954,2.8201,1.8015,-0.445,0.3152,31.693,-34.88,19.39,-23.96,295.05,13.55,-85.29,0,1013.58,46.136,30.453472,-84.31873,165.6,154.7645462,,0,55.329033,,0 / 18,36905,2018-04-21 23:51:17:089,,,
9.8005,-0.033,-0.3066,9.5627,-2.1575,-0.3694,1.9467,-2.3172,5.8453,1.1514,-1.6476,-0.3336,31.693,-37.58,17.16,-19.82,291.39,12.7,-92.21,0,1013.58,46.136,30.453472,-84.31873,165.6,154.7645462,,0,55.329033,,0 / 18,37006,2018-04-21 23:51:17:190,,,
8.4712,-0.4161,0.1226,9.6696,-1.653,0.0489,1.3341,-0.7895,-0.8832,-0.2206,0.6406,0.0383,31.693,-39.22,16.17,-19.67,290.79,11.02,-93.58,0,1013.58,41.004,30.453472,-84.31873,165.6,154.7645462,,0,55.329033,,0 / 18,37106,2018-04-21 23:51:17:290,,,
8.9858,-2.2287,-0.3132,9.1753,-3.459,0.2909,0.8219,-0.9653,0.5351,-0.0053,0.1747,1.4799,31.693,-38.08,19.39,-20.19,297.73,12.37,-89.66,0,1013.62,41.004,30.453472,-84.31873,165.6,154.7645462,,0,55.329033,,0 / 18,37206,2018-04-21 23:51:17:390,,,
8.4815,-3.1078,0.832,8.6008,-4.6734,0.6495,0.3686,-0.1977,0.433,0.362,0.4944,2.5084,31.693,-34.47,26.47,-23.37,286.11,28.45,-85.68,0,1013.62,41.004,30.453472,-84.31873,165.6,154.7645462,,0,55.329033,,0 / 18,37306,2018-04-21 23:51:17:490,,,
5.5244,-4.5926,0.278,6.8664,-7.0019,0.249,-0.5708,-2.3124,-0.4162,-0.1952,-0.5651,2.5465,2.113,-32.08,32.41,-21.71,284.13,37.57,-86.04,0,1013.6,41.004,30.453472,-84.31873,165.6,154.7645462,,0,55.329033,,0 / 18,37406,2018-04-21 23:51:17:590,,,
6.3985,-6.9705,1.321,6.4784,-7.3459,0.552,-1.0919,1.5778,-0.5732,0.4955,0.144,0.4757,2.113,-28.59,37.45,-21.48,274.8,48.49,-85.13,0,1013.63,51.04,30.453472,-84.31873,165.6,154.7645462,,0,55.329033,,0 / 18,37507,2018-04-21 23:51:17:691,,,
8.152,-5.6476,-0.1756,7.0802,-6.7816,-0.3419,-2.6931,1.8063,-1.1186,-0.1819,-1.7369,-1.1374,2.113,-31.29,36.13,-19.47,284.36,43.73,-92.77,0,1013.63,51.04,30.453472,-84.31873,165.6,154.7645462,,0,55.329033,,0 / 18,37606,2018-04-21 23:51:17:790,,,
7.3263,-9.2262,-0.2715,7.0285,-6.8332,-0.3782,-4.1486,0.504,-1.435,0.5919,-0.3241,0.522,2.113,-33.44,35.07,-16.57,278.48,44.15,-93.08,0,1014.04,51.04,30.453472,-84.31873,165.6,154.7645462,,0,55.329033,,0 / 18,37706,2018-04-21 23:51:17:890,,,
7.3329,-5.5005,-1.774,6.4462,-7.3856,-0.3686,-0.778,-3.7791,0.9353,-0.8784,0.1054,0.4747,2.113,-32.02,36.95,-17.36,273.14,48.84,-93.27,0,1014.04,55.416,30.453472,-84.31873,165.6,154.7645462,,0,55.329033,,0 / 18,37806,2018-04-21 23:51:17:990,,,
6.8323,-6.7675,-1.7526,6.6145,-7.1006,-1.4376,0.9209,-1.027,0.8162,-0.4399,-0.5631,-0.1439,2.113,-32.08,38.86,-14.36,280.95,48.41,-97.24,0,1013.98,55.416,30.453472,-84.31873,165.6,154.7645462,,0,55.329033,,0 / 18,37906,2018-04-21 23:51:18:090,,,
6.4838,-8.1622,-2.2511,6.7495,-6.7602,-2.2318,0.8396,2.9853,-0.1356,-0.7554,-1.3068,-0.4354,2.113,-36.14,37.75,-8.59,286.64,43.56,-108.3,0,1013.83,55.416,30.453472,-84.31873,165.6,154.7645462,,0,55.329033,,0 / 18,38006,2018-04-21 23:51:18:190,,,
8.1138,-7.1709,-3.665,6.3315,-6.5306,-3.674,0.8991,-1.8279,-0.0395,-0.7954,-0.8992,0.0741,1.183,-36.59,38.07,-4.51,288.93,42.34,-114.86,0,1013.68,52.19,30.453472,-84.31873,165.6,154.7645462,,0,55.329033,,0 / 18,38105,2018-04-21 23:51:18:289,,,
1.8363,-2.9803,-4.3127,6.0859,-6.5827,-3.9832,4.6216,-3.5516,-0.0603,-0.2487,-0.2584,0.2854,1.183,-37.32,40.07,1.35,294.14,41.91,-124.06,0,1013.68,52.19,30.453472,-84.31873,165.6,154.7645462,,0,55.329033,,0 / 18,38206,2018-04-21 23:51:18:390,,,
5.7793,-4.0936,-6.9371,6.2254,-6.7767,-3.3996,-3.2732,-0.1594,3.7644,0.4713,0.537,0.1189,1.183,-35.68,40.1,-3.01,292.13,43.69,-118.64,0,1013.8,52.19,30.453472,-84.31873,165.6,154.7645462,,0,55.329033,,0 / 18,38306,2018-04-21 23:51:18:490,,,
6.9612,-5.5331,-6.6256,6.2024,-6.6233,-3.728,-0.9685,2.5928,1.142,-0.0633,-0.5892,-0.1421,1.183,-36.13,39.36,-2.83,293.04,42.47,-121.01,0,1013.8,50.858,30.453472,-84.31873,165.6,154.7645462,,0,55.329033,,0 / 18,38405,2018-04-21 23:51:18:589,,,Out
3.989,-10.1642,-2.7468,6.0949,-6.8905,-3.4072,-1.0204,-0.7551,-4.5979,0.2534,0.2674,0.1702,1.183,-36.06,38.69,-2.95,288.4,44.62,-119.21,0,1013.76,50.858,30.453472,-84.31873,165.6,154.7645462,,0,55.329033,,0 / 18,38506,2018-04-21 23:51:18:690,,,Out
7.0281,-7.2591,-0.1357,6.5116,-6.8551,-2.6159,-1.522,1.0781,-2.6998,0.2784,0.8266,-0.1643,1.183,-35.83,38.56,-5.35,288.61,44.36,-116.44,0,1013.74,50.858,30.453472,-84.31873,165.6,154.7645462,,0,55.329033,,0 / 18,38606,2018-04-21 23:51:18:790,,,Out
4.187,-6.4148,0.1363,6.7547,-6.8044,-2.076,-1.279,1.1688,-0.8097,-0.074,1.4447,0.2352,1.183,-34.93,36.69,-10.07,285.45,43.92,-107.08,0,1013.8,50.858,30.453472,-84.31873,165.6,154.7645462,,0,55.329033,,0 / 18,38706,2018-04-21 23:51:18:890,,,Out
6.9719,-4.427,-2.9634,6.745,-7.0249,-1.1793,-1.007,-2.4698,3.0223,-0.0657,1.0581,0.6885,1.183,-33.52,38.4,-12.97,285.79,44.68,-102.59,0,1013.8,47.716,30.453472,-84.31873,165.6,154.7645462,,0,55.329033,,0 / 18,38806,2018-04-21 23:51:18:990,,,Out
8.26,-6.393,-0.8757,6.5271,-7.3163,-0.3244,-2.0715,-1.9592,-0.2791,0.5012,0.5623,0.395,1.183,-29.62,40.09,-15.92,287.2,47.99,-96.54,0,1013.84,47.716,30.453472,-84.31873,165.6,154.7645462,,0,55.329033,,0 / 18,38906,2018-04-21 23:51:19:090,,,Out
7.9247,-8.6616,-1.2488,6.6156,-7.2428,-0.1086,-3.2715,2.7334,2.4026,-0.0923,0.1866,-0.2491,1.183,-28.87,38.59,-17.88,285.47,47.59,-90.94,0,1013.84,47.716,30.453472,-84.31873,165.6,154.7645462,,0,55.329033,,0 / 18,39006,2018-04-21 23:51:19:190,,,Out
5.8153,-6.8293,-0.239,6.9597,-6.6854,-1.762,-0.1562,4.327,0.6099,-0.9313,-1.1943,-0.6341,1.183,-32.14,38.48,-12.58,293.38,42.96,-104.21,0,1013.78,46.249,30.453472,-84.31873,165.6,154.7645462,,0,55.329033,,0 / 18,39106,2018-04-21 23:51:19:290,,,Out
8.9733,-10.5491,-2.2305,6.8788,-6.3723,-2.883,0.2907,-0.4486,-1.0044,-1.4275,-1.2455,-0.3796,1.183,-33.49,39.76,-8.54,301.5,40.51,-112.74,0,1013.52,46.249,30.453472,-84.31873,165.6,154.7645462,,0,55.329033,,0 / 18,39206,2018-04-21 23:51:19:390,,,Out
4.176,-4.4766,-2.2497,6.4225,-6.0292,-4.317,2.4568,-2.0195,-1.6841,0.6154,-1.2193,-0.2706,1.183,-35.47,38.52,-0.44,304.02,38.33,-119.92,0,1013.52,46.249,30.453472,-84.31873,165.6,154.7645462,,0,55.329033,,0 / 18,39306,2018-04-21 23:51:19:490,,,Out
3.2313,-3.7513,-3.7776,6.3043,-6.4621,-3.8383,3.5487,-3.4546,-0.4506,0.8429,-0.0246,0.2162,1.183,-35.97,37.63,-0.32,296.57,39.81,-124.54,0,1013.42,46.244,30.453472,-84.31873,165.6,154.7645462,,0,55.329033,,0 / 18,39406,2018-04-21 23:51:19:590,,,Out
11.7483,-10.3927,-6.7729,6.2124,-6.4334,-4.0315,4.3217,-3.8816,2.2271,-0.1898,-0.7935,-0.215,1.183,-36.42,37.67,-1.91,293.82,41.2,-121.33,0,1013.6,46.244,30.453472,-84.31873,165.6,154.7645462,,0,55.329033,,0 / 18,39506,2018-04-21 23:51:19:690,,,Out
4.8022,-10.3831,-3.6325,6.0886,-6.5317,-4.0623,0.2741,6.0852,-0.3101,0.675,-0.3324,0.1487,1.183,-37.87,37.21,-0.11,289.93,40.55,-125.48,0,1013.6,46.244,30.453472,-84.31873,165.6,154.7645462,,0,55.329033,,0 / 18,39606,2018-04-21 23:51:19:790,,,Out
7.1467,-5.3509,-0.3715,6.4747,-6.4126,-3.6323,-2.2648,-2.1957,-3.1806,0.7381,0.6146,0.0219,1.183,-37.52,36.76,-2.71,288.98,40.82,-119.29,0,1013.68,42.167,30.453472,-84.31873,165.6,154.7645462,,0,55.329033,,0 / 18,39706,2018-04-21 23:51:19:890,,,Out
4.5863,-5.0286,-0.8192,6.7819,-6.7276,-2.2319,1.0592,-0.5982,-1.8167,0.7433,1.1955,0.0482,1.183,-36.3,35.61,-8.39,283.32,43.3,-108.22,0,1013.72,42.167,30.453472,-84.31873,165.6,154.7645462,,0,55.329033,,0 / 18,39806,2018-04-21 23:51:19:990,,,Out
7.081,-5.908,-1.7813,6.714,-7.1015,-0.8526,-1.4439,-1.8694,1.8509,0.1441,1.5043,0.3073,1.183,-36.24,35.4,-11.81,276.05,44.38,-101.48,0,1013.72,42.167,30.453472,-84.31873,165.6,154.7645462,,0,55.329033,,0 / 18,39905,2018-04-21 23:51:20:089,,,Out
7.3572,-4.8096,-1.6739,6.4553,-7.3733,-0.4474,-0.0937,-1.5602,0.8304,0.4411,0.4317,0.299,1.183,-31.05,37.56,-16.98,278.06,48.73,-93.96,0,1013.89,42.167,30.453472,-84.31873,165.6,154.7645462,,0,55.329033,,0 / 18,40006,2018-04-21 23:51:20:190,,,Out
8.8855,-9.6055,-1.1672,6.5727,-7.2826,0.0117,-2.4139,2.3772,1.6912,0.3477,0.2661,-0.2001,1.183,-30.67,37.11,-18.77,275.24,48.25,-91.17,0,1013.89,53.715,30.453472,-84.31873,165.6,154.7645462,,0,55.329033,,0 / 18,40107,2018-04-21 23:51:20:291,,,Out
9.7656,-6.7553,2.2669,6.8291,-7.0123,-0.6535,2.5826,1.9941,-0.8068,-0.8472,-1.7893,-0.722,1.183,-33.13,35.88,-13.53,278.81,45.63,-95.47,0,1013.89,53.715,30.453472,-84.31873,165.6,154.7645462,,0,55.329033,,0 / 18,40206,2018-04-21 23:51:20:390,,,Out
6.9903,-9.7881,-1.2728,6.9234,-6.2086,-3.1234,0.0466,4.7633,-1.2754,-1.9026,-1.1785,-0.3049,1.183,-35.48,35.57,-8.88,286.28,42.72,-106.55,0,1013.48,53.715,30.453472,-84.31873,165.6,154.7645462,,0,55.329033,,0 / 18,40306,2018-04-21 23:51:20:490,,,Out
6.346,-5.4294,-2.4837,6.8079,-5.9389,-3.8234,0.0935,-1.791,-0.2936,-0.0814,-1.0711,0.1598,1.183,-36.8,37.75,-2.47,299.65,37.26,-119.32,0,1013.48,53.42,30.453472,-84.31873,165.6,154.7645462,,0,55.329033,,0 / 18,40406,2018-04-21 23:51:20:590,,,Out
2.3656,-3.313,-2.615,6.3222,-6.3174,-4.0442,5.6303,-4.4802,-0.5668,0.564,0.1736,-0.1626,1.183,-36.81,37.9,-2.06,294.15,40.09,-122.61,0,1013.37,53.42,30.453472,-84.31873,165.6,154.7645462,,0,55.329033,,0 / 18,40506,2018-04-21 23:51:20:690,,,Out
11.5246,-10.0919,-5.5221,6.5178,-6.3277,-3.7034,-0.3921,0.2797,2.1663,0.5773,0.1591,-0.2715,1.183,-36.9,36.95,-3.52,291.75,40.27,-118.52,0,1013.47,53.42,30.453472,-84.31873,165.6,154.7645462,,0,55.329033,,0 / 18,40605,2018-04-21 23:51:20:789,,,Out
6.6138,-8.2137,-5.8192,6.4287,-6.2918,-3.9143,-4.2639,6.5368,0.9732,0.6521,-0.4294,0.1282,1.183,-37.65,36.25,-2.42,289.19,39.89,-121.34,0,1013.52,56.031,30.453472,-84.31873,165.6,154.7645462,,0,55.329033,,0 / 18,40705,2018-04-21 23:51:20:889,,,Out
6.151,-3.6579,-0.6738,6.7555,-6.1022,-3.6554,-2.3306,-3.5997,-6.97,-0.637,0.3483,0.1407,1.183,-37.44,36.86,-2.4,295.7,38.47,-118.42,0,1013.52,56.031,30.453472,-84.31873,165.6,154.7645462,,0,55.329033,,18-Aug,40805,2018-04-21 23:51:20:989,,,Out
8.7004,-9.8589,-1.1303,6.4288,-6.8384,-2.8537,2.2182,4.3837,0.8336,1.8584,0.7846,1.8188,1.183,-33.3,39.7,-8.64,295.26,44.19,-113.94,0,1013.87,56.031,30.453472,-84.31873,165.6,154.7645462,,0,55.329033,,18-Aug,40905,2018-04-21 23:51:21:089,,,Out
2.0093,-14.3769,1.4996,3.9209,-8.9786,0.4973,5.9864,-0.3914,7.5801,0.9351,6.2087,0.0887,1.183,-25.85,44.95,-15.23,284.18,58.97,-106.55,0,1013.87,64.971,30.453472,-84.31873,165.6,154.7645462,,0,55.329033,,18-Aug,41005,2018-04-21 23:51:21:189,,,Out
-3.3133,-3.7479,4.5196,2.5266,-9.4714,0.382,7.8921,-3.8728,-11.3905,-3.5876,3.9565,0.821,1.183,-8.5,48.93,-20.59,290.79,69.5,-83.84,0,1013.87,64.971,30.453472,-84.31873,165.6,154.7645462,,0,55.329033,,18-Aug,41106,2018-04-21 23:51:21:290,,,Out
-9.2547,-3.393,-1.3957,2.9884,-9.2955,-0.9477,19.2552,0.0291,-6.9547,-5.0375,4.6177,0.4101,1.183,3.17,55.61,-9.19,341.69,71.36,-107.6,2,1013.65,64.971,30.453472,-84.31873,165.6,154.7645462,,0,55.329033,,18-Aug,41206,2018-04-21 23:51:21:390,,,Out
-13.6579,-18.8657,8.2593,-0.6321,-9.1681,-3.4325,13.2533,9.465,-11.3793,-2.5706,2.3491,4.3517,1.183,12.15,55.98,4.96,33.2,70.51,-152.25,2,1013.59,64.971,30.453472,-84.31873,165.6,154.7645462,,0,55.329033,,18-Aug,41306,2018-04-21 23:51:21:490,,,Out
-13.2454,-17.8807,2.1004,-2.9232,-9.039,-2.447,9.3558,8.3262,-4.5664,1.8313,-1.0103,4.0866,1.183,30.69,45.65,5.15,113.5,67.13,129.93,2,1013.59,51.071,30.453472,-84.31873,165.6,154.7645462,,0,55.329033,,18-Aug,41406,2018-04-21 23:51:21:590,,,Out
-4.5408,-10.455,-3.8691,-6.9853,-6.8806,-0.3128,-2.0674,2.9478,2.6843,0.961,-1.6104,4.2125,1.183,41.43,29.4,-4.28,143.69,44.54,92.56,2,1013.59,51.071,30.453472,-84.31873,165.6,154.7645462,,0,55.329033,,18-Aug,41506,2018-04-21 23:51:21:690,,,
-7.7653,-14.0124,-5.4841,-7.2005,-6.6056,0.8683,-1.6438,3.6226,1.5577,-0.9073,-3.1015,0.2341,1.183,37.85,25.36,-17.1,123.92,42.33,83.12,2,1013.59,51.071,30.453472,-84.31873,165.6,154.7645462,,0,55.329033,,18-Aug,41606,2018-04-21 23:51:21:790,,,
-1.9495,-5.5639,4.9219,-7.4653,-6.2239,1.3301,-3.9604,-2.2035,-5.7059,-1.1326,-0.812,0.224,16.903,36.14,26.88,-21.18,112.27,41.18,78.89,2,1013.47,58.261,30.453472,-84.31873,165.6,154.7645462,,0,55.329033,,18-Aug,41705,2018-04-21 23:51:21:889,,,
-5.4153,-3.4201,4.9263,-7.3313,-5.9286,2.7091,-1.7917,-3.2089,-3.6123,0.8458,-0.8866,-0.1047,16.903,33.98,26.97,-24.02,105.79,40.32,76.72,2,1013.33,58.261,30.453472,-84.31873,165.6,154.7645462,,0,55.329033,,0 / 18,41806,2018-04-21 23:51:21:990,,,
-5.7003,-4.4203,2.1754,-7.4741,-5.3452,3.4355,-0.7172,1.8283,1.3956,1.46,-0.7218,0.5005,16.903,33.98,19.74,-25.93,122.39,33.02,65.31,2,1013.33,58.261,30.453472,-84.31873,165.6,154.7645462,,0,55.329033,,0 / 18,41906,2018-04-21 23:51:22:090,,,
-9.4347,-12.2357,-0.039,-6.8673,-5.2146,4.678,2.4069,8.0988,3.1956,1.0363,-0.7653,-0.16,16.903,30.44,16.6,-30.66,132.7,32.11,55.74,2,1013.42,54.081,30.453472,-84.31873,165.6,154.7645462,,0,55.329033,,0 / 18,42005,2018-04-21 23:51:22:189,,,
-6.821,-12.3232,4.1022,-7.2612,-5.4526,3.712,-1.91,5.409,-0.6622,-0.0069,3.0201,0.1758,16.903,31.96,19.4,-27.61,124.51,33.77,62.92,2,1013.4,54.081,30.453472,-84.31873,165.6,154.7645462,,0,55.329033,,0 / 18,42106,2018-04-21 23:51:22:290,,,
-2.0883,-4.6381,-0.1025,-7.9523,-5.2642,2.2989,-6.1935,-0.3295,3.4154,1.1367,0.6288,-0.9583,16.903,39.61,18.24,-15.81,151.39,32.45,73.88,2,1013.4,54.081,30.453472,-84.31873,165.6,154.7645462,,0,55.329033,,0 / 18,42205,2018-04-21 23:51:22:389,,,
-8.292,-8.1563,-0.3044,-7.7341,-5.9221,1.1614,1.0571,4.2971,-1.4979,1.3695,1.3878,-1.4175,16.903,43.76,22.99,-11.13,199.54,37.47,71.81,2,1013.45,49.213,30.453472,-84.31873,165.6,154.7645462,,0,55.329033,,0 / 18,42306,2018-04-21 23:51:22:490,,,
-5.1905,-7.5099,8.1235,-8.054,-5.5743,0.5453,-1.8397,0.8667,-2.0062,4.524,0.2126,-0.1613,11.621,46.48,20.31,-1.3,206.72,37.13,81.46,2,1013.48,49.213,30.453472,-84.31873,165.6,154.7645462,,0,55.329033,,0 / 18,42405,2018-04-21 23:51:22:589,,,
-5.5237,-8.0174,5.5102,-7.4226,-5.3125,3.5943,-0.8895,1.3729,-1.6203,4.3754,-0.15,-1.3296,11.621,49.12,22.01,-0.44,246.42,34.7,68.45,2,1013.48,49.213,30.453472,-84.31873,165.6,154.7645462,,0,55.329033,,0 / 18,42506,2018-04-21 23:51:22:690,,,
-2.8747,-7.6669,9.3846,-6.384,-5.241,5.2926,-7.4299,0.1494,-1.6992,3.8176,-1.6439,-3.3093,11.621,46.7,27.45,-4.23,274.52,32.29,50.34,2,1013.54,49.213,30.453472,-84.31873,165.6,154.7645462,,0,55.329033,,0 / 18,42606,2018-04-21 23:51:22:790,,,
6.4059,-8.2678,9.2484,-0.7647,-6.2404,7.5305,-9.5351,-0.7174,0.1816,1.8619,-1.5411,-6.9479,11.621,40.77,39.06,-9.12,295.24,36.64,27.91,2,1013.41,49.691,30.453472,-84.31873,165.6,154.7645462,,0,55.329033,,0 / 18,42706,2018-04-21 23:51:22:890,,,
8.1407,-3.3074,9.3535,0.8613,-5.3224,8.1955,-7.2852,-3.5428,-3.1423,1.2639,-1.7786,0.8928,11.621,23.46,47.88,-14.78,322.39,35.68,-5.18,2,1013.41,49.691,30.453472,-84.31873,165.6,154.7645462,,0,55.329033,,0 / 18,42806,2018-04-21 23:51:22:990,,,
5.4965,-1.2026,13.4313,1.9744,-4.3531,8.5667,-2.9906,-3.9428,-4.503,2.5726,-3.3126,2.468,11.621,21.83,37.89,-22.6,314.67,26.34,-12.98,2,1013.42,49.691,30.453472,-84.31873,165.6,154.7645462,,0,55.329033,,0 / 18,42906,2018-04-21 23:51:23:090,,,
8.094,-10.0853,13.6966,1.9874,-4.4927,8.4913,-6.6904,8.2115,-3.9996,1.9412,-3.123,7.0618,11.621,13.57,20.52,-31.54,285.65,27.26,-13.17,2,1013.42,58.366,30.453472,-84.31873,165.6,154.7645462,,0,55.329033,,0 / 18,43005,2018-04-21 23:51:23:189,,,
7.517,-5.2998,13.511,1.0663,-6.6155,7.1648,-6.5034,-9.6825,-5.3292,-2.7833,-3.6128,6.9308,7.395,5.6,19.6,-32.92,285.44,27.26,-13.17,2,1013.46,58.366,30.453472,-84.31873,165.6,154.7645462,,0,55.329033,,0 / 18,43105,2018-04-21 23:51:23:289,,,
5.3764,1.591,7.8057,1.9802,-8.0137,5.3005,-4.2415,-9.2187,-1.4752,-1.5904,-4.0404,2.4994,7.395,-10.01,34.39,-28.77,103.47,51.22,-4.45,2,1013.49,58.366,30.453472,-84.31873,165.6,154.7645462,,0,55.329033,,0 / 18,43205,2018-04-21 23:51:23:389,,,
5.0076,-1.6126,6.6188,4.4337,-7.5988,4.3402,0.5324,-3.9889,-2.6045,0.291,-4.5118,-2.1664,7.395,-31.04,29.12,-13.14,115.31,50.77,-45.61,2,1013.5,60.138,30.453472,-84.31873,165.6,154.7645462,,0,55.329033,,0 / 18,43305,2018-04-21 23:51:23:489,,,
4.7101,-6.437,8.3139,7.0761,-6.1638,2.8588,2.7595,4.5614,-5.7128,0.9248,-1.0331,-0.2048,7.395,-38.97,21.08,-2.96,120.94,38.93,-68,2,1013.5,60.138,30.453472,-84.31873,165.6,154.7645462,,0,55.329033,,0 / 18,43406,2018-04-21 23:51:23:590,,,
7.56,-5.1316,5.4493,7.3752,-5.6424,3.1632,1.4584,-0.4412,-0.4933,0.3812,0.1865,-0.2231,7.395,-38.72,21.19,-3.87,121.57,39.11,-66.55,2,1013.51,60.138,30.453472,-84.31873,165.6,154.7645462,,0,55.329033,,0 / 18,43506,2018-04-21 23:51:23:690,,,
4.5385,-4.9467,4.9448,7.5482,-5.541,2.9256,1.9972,-1.1814,-2.1492,-0.0889,0.2319,-0.06,7.395,-39.55,17.27,-2.6,123.27,34.39,-68.81,2,1013.51,52.787,30.453472,-84.31873,165.6,154.7645462,,0,55.329033,,0 / 18,43605,2018-04-21 23:51:23:789,,,
6.5076,-6.0699,2.6522,7.7994,-4.9916,3.2389,1.8015,1.3623,1.2927,0.4186,-0.0879,-0.794,7.395,-39.68,14.74,-4.15,119.78,30.59,-67.45,2,1013.53,52.787,30.453472,-84.31873,165.6,154.7645462,,0,55.329033,,0 / 18,43706,2018-04-21 23:51:23:890,,,
6.9197,-6.5771,2.9164,7.5935,-5.1928,3.4073,1.3689,2.8142,1.8198,0.9356,-0.2283,0.9296,28.524,-39.77,14.22,-6.56,131.88,31.96,-65.83,2,1013.55,52.787,30.453472,-84.31873,165.6,154.7645462,,0,55.329033,,0 / 18,43806,2018-04-21 23:51:23:990,,,
7.9379,-6.0955,3.7261,7.2568,-5.5571,3.5628,-0.5125,0.7,-0.0856,1.0894,-1.1604,1.3706,28.524,-42.63,17.14,-7.56,127.17,32.75,-64.49,2,1013.57,52.787,30.453472,-84.31873,165.6,154.7645462,,0,55.329033,,0 / 18,43905,2018-04-21 23:51:24:089,,,
9.9118,-6.2237,4.0904,7.3869,-5.4913,3.3934,-3.0121,-0.4923,-1.5532,-0.2617,-0.4367,0.0735,28.524,-43.62,19.16,-6.25,129.29,37.38,-65.15,0,1013.57,33.76,30.453472,-84.31873,165.6,154.7645462,,0,55.329033,,0 / 18,44006,2018-04-21 23:51:24:190,,,
7.3704,-4.6426,2.2185,7.6629,-5.1977,3.2402,0.0984,-0.8893,1.4383,0.8672,-0.7609,-0.4131,28.524,-44.61,15.62,-2.02,119.31,31.99,-67.08,0,1013.54,33.76,30.453472,-84.31873,165.6,154.7645462,,0,55.329033,,0 / 18,44105,2018-04-21 23:51:24:289,,,
7.726,-3.9946,2.7692,8.2317,-4.6779,2.5675,1.5076,-0.5717,-0.3646,0.7861,-0.8832,-0.1932,28.524,-45.7,14.89,-0.63,115.65,29.39,-67.57,0,1013.54,33.76,30.453472,-84.31873,165.6,154.7645462,,0,55.329033,,0 / 18,44206,2018-04-21 23:51:24:390,,,
6.4761,-4.3658,2.9552,8.2464,-4.7004,2.4777,0.6291,1.1921,0.5727,0.6497,-0.122,0.6924,28.524,-45.76,15.42,5.41,111.92,28.63,-73.28,0,1013.55,37.446,30.453472,-84.31873,165.6,154.7645462,,0,55.329033,,0 / 18,44306,2018-04-21 23:51:24:490,,,
7.4707,-7.4336,3.6763,7.8121,-5.3441,2.5784,1.0417,2.4134,-2.7109,0.8294,-0.3544,1.2589,28.524,-45.43,19.44,5.56,107.7,33.01,-71.73,0,1013.54,37.446,30.453472,-84.31873,165.6,154.7645462,,0,55.329033,,0 / 18,44406,2018-04-21 23:51:24:590,,,
8.1076,-5.006,5.6438,7.9062,-4.8387,3.2118,-1.0465,0.1573,-2.0178,0.4783,0.3353,-0.3461,28.524,-45.1,20.21,4.11,104.58,32.94,-68.7,0,1013.54,37.446,30.453472,-84.31873,165.6,154.7645462,,0,55.329033,,0 / 18,44505,2018-04-21 23:51:24:689,,,
8.6192,-4.1543,6.6683,7.8962,-4.5452,3.6369,-0.8232,-1.1303,-3.5912,-0.7469,1.0718,-1.2916,9.508,-48.01,4.72,-6.71,141.3,27.6,-65.27,0,1013.56,44.061,30.453472,-84.31873,165.6,154.7645462,,0,55.329033,,0 / 18,44605,2018-04-21 23:51:24:789,,,
8.3067,-1.2896,3.3744,8.7092,-3.1963,3.189,0.2258,-2.2905,-0.4618,-1.6854,-0.0545,-2.0111,9.508,-48.11,-2.95,-10.36,155.71,22.79,-66.88,0,1013.56,44.061,30.453472,-84.31873,165.6,154.7645462,,0,55.329033,,0 / 18,44706,2018-04-21 23:51:24:890,,,
7.6569,-1.7649,2.3525,8.9884,-2.4375,3.0827,0.3314,-0.7731,1.2764,0.4185,-0.2026,-0.6797,9.508,-46.63,-10.73,-11.34,167.9,14.39,-71.07,0,1013.56,44.061,30.453472,-84.31873,165.6,154.7645462,,0,55.329033,,0 / 18,44805,2018-04-21 23:51:24:989,,,
10.0532,-1.7334,2.8522,8.9005,-3.1972,2.6066,-1.8066,-1.9091,-0.6847,-0.8256,-0.1398,0.3108,9.508,-46.65,-10.17,-11.17,168.62,14.22,-71.68,0,1013.57,40.989,30.453472,-84.31873,165.6,154.7645462,,0,55.329033,,0 / 18,44906,2018-04-21 23:51:25:090,,,
10.6989,-1.5497,2.9161,8.7482,-3.6161,2.5747,-1.122,-3.441,-0.0131,0.2188,-0.4447,0.0223,9.508,-47.32,-4.97,-10.86,173.09,21.63,-73.6,0,1013.57,40.989,30.453472,-84.31873,165.6,154.7645462,,0,55.329033,,0 / 18,45006,2018-04-21 23:51:25:190,,,
8.7669,-2.9322,3.2678,8.9164,-3.4491,2.1994,0.2031,-1.2581,-0.3108,-0.1571,0.8131,0.7457,9.508,-47.54,-5.75,-9.71,175.53,20.58,-76.14,0,1013.57,40.989,30.453472,-84.31873,165.6,154.7645462,,0,55.329033,,0 / 18,45107,2018-04-21 23:51:25:291,,,
8.3592,-1.8994,3.3785,8.0505,-4.5773,3.2362,-0.3277,-2.4248,0.1034,-0.9609,1.4945,1.0348,9.508,-47.51,-3.16,-11.74,171.97,24.77,-72.14,0,1013.57,40.989,30.453472,-84.31873,165.6,154.7645462,,0,55.329033,,0 / 18,45206,2018-04-21 23:51:25:390,,,
7.8167,-2.4836,3.0238,7.9668,-4.4976,3.5409,0.2291,-2.3989,0.551,0.2962,0.3655,-0.3028,10.564,-45.92,-0.9,-18.03,174.57,27.29,-66.04,0,1013.58,51.858,30.453472,-84.31873,165.6,154.7645462,,0,55.329033,,0 / 18,45306,2018-04-21 23:51:25:490,,,
7.1596,-0.7491,3.6302,8.1999,-3.6175,3.989,1.0489,-3.2292,0.0345,0.093,0.2659,-0.7358,10.564,-45.74,-3.1,-18.75,174.66,25.01,-65,0,1013.58,51.858,30.453472,-84.31873,165.6,154.7645462,,0,55.329033,,0 / 18,45407,2018-04-21 23:51:25:591,,,
9.6062,0.3671,3.4755,8.5773,-2.4158,4.1026,0.5017,0.8427,-3.8787,0.0091,0.3291,-1.7564,10.564,-43.37,-11.27,-20.84,181,14.26,-64.44,0,1013.58,51.858,30.453472,-84.31873,165.6,154.7645462,,0,55.329033,,0 / 18,45508,2018-04-21 23:51:25:692,,,
8.3643,-2.4873,6.7587,7.6161,-2.2931,5.7422,0.3701,0.0589,-0.5358,0.3619,2.1574,0.2356,10.564,-41.07,-11.65,-23.97,183.67,13.57,-61.42,0,1013.58,55.9,30.453472,-84.31873,165.6,154.7645462,,0,55.329033,,0 / 18,45605,2018-04-21 23:51:25:789,,,
7.56,-0.4316,5.6589,7.7182,-1.5789,5.8457,-2.1925,-3.1984,0.5922,-0.0381,-0.1581,-0.6779,10.564,-36.8,-12.07,-31,175.72,13.35,-48.02,0,1013.58,55.9,30.453472,-84.31873,165.6,154.7645462,,0,55.329033,,0 / 18,45706,2018-04-21 23:51:25:890,,,
8.3937,-4.068,6.4406,8.041,-1.3843,5.4463,-0.683,2.0957,-2.2299,-0.1816,-1.0631,-1.205,10.564,-37.39,-14.45,-27.03,184.52,8.11,-55.89,0,1013.58,55.9,30.453472,-84.31873,165.6,154.7645462,,0,55.329033,,0 / 18,45807,2018-04-21 23:51:25:991,,,
4.0812,-5.6357,4.558,8.3423,-0.3317,5.1509,4.013,4.6434,1.0315,1.7466,0.2066,-0.2322,10.564,-37.71,-21.32,-24.75,183.32,1.94,-58.31,0,1013.58,51.185,30.453472,-84.31873,165.6,154.7645462,,0,55.329033,,0 / 18,45906,2018-04-21 23:51:26:090,,,
5.4957,-3.0137,4.7204,8.4514,-1.1974,4.8349,0.0465,-2.6752,-3.4544,2.1492,-1.2503,3.5102,11.621,-43.02,-18.39,-17.68,166.31,7.01,-60.23,0,1013.58,51.185,30.453472,-84.31873,165.6,154.7645462,,0,55.329033,,0 / 18,46006,2018-04-21 23:51:26:190,,,
13.9462,-2.9333,8.6664,8.5707,-3.6354,3.0923,-5.4477,0.8034,-5.2696,2.6445,-2.4058,1.4381,11.621,-48.1,-4.9,-6.07,140.79,16.35,-65.42,2,1013.57,51.185,30.453472,-84.31873,165.6,154.7645462,,0,55.329033,,0 / 18,46106,2018-04-21 23:51:26:290,,,
11.8743,-3.7827,-2.5446,9.4153,-2.7255,0.4007,-1.8645,1.9824,3.2151,4.1491,-4.1632,-0.2701,11.621,-44.98,1.06,10.25,121.79,18.28,-77.39,2,1013.57,34.902,30.453472,-84.31873,165.6,154.7645462,,0,55.329033,,0 / 18,46206,2018-04-21 23:51:26:390,,,
10.0672,-3.3341,-2.1378,9.56,-2.2007,0.0078,2.2076,0.9572,-0.9528,1.3957,0.4185,-0.5062,11.621,-42.68,3.88,16.13,113.93,16.13,-87.56,0,1013.59,34.902,30.453472,-84.31873,165.6,154.7645462,,0,55.329033,,0 / 18,46306,2018-04-21 23:51:26:490,,,
6.0136,-2.3887,-2.4379,9.3129,-2.8423,1.1949,5.0437,-0.2553,7.7157,0.4824,1.2718,0.5341,11.621,-43.61,6.83,13.12,98.84,13.2,-83.22,0,1013.6,34.902,30.453472,-84.31873,165.6,154.7645462,,0,55.329033,,0 / 18,46408,2018-04-21 23:51:26:592,,,
8.7636,-3.7461,1.435,9.0232,-3.6541,1.2104,-0.2689,-0.8049,0.5945,1.3452,-0.3246,1.4699,11.621,-41.29,14.13,13.29,94.68,21.87,-82.36,0,1013.6,34.902,30.453472,-84.31873,165.6,154.7645462,,0,55.329033,,0 / 18,46506,2018-04-21 23:51:26:690,,,
9.7267,-4.3692,1.745,8.1477,-5.3459,1.1285,-0.6105,-0.8427,-0.3373,0.5437,-0.3061,1.5103,11.621,-36.48,23.45,13.75,87.26,33.02,-82.11,0,1013.6,37.306,30.453472,-84.31873,165.6,154.7645462,,0,55.329033,,0 / 18,46606,2018-04-21 23:51:26:790,,,
6.5451,-5.2783,0.9574,7.3198,-6.4891,0.7412,0.5851,0.1641,0.8923,-0.5902,-0.9666,1.752,1.056,-32.35,27.42,15.29,89.4,41.41,-84.22,0,1013.61,37.306,30.453472,-84.31873,165.6,154.7645462,,0,55.329033,,0 / 18,46706,2018-04-21 23:51:26:890,,,
6.8981,-6.6634,0.7423,6.4744,-7.3626,0.3307,1.6824,-2.3946,-2.3607,0.3296,0.6275,1.305,1.056,-27.47,30.26,17.59,89.18,48.64,-87.08,0,1013.61,37.306,30.453472,-84.31873,165.6,154.7645462,,0,55.329033,,0 / 18,46806,2018-04-21 23:51:26:990,,,
3.9395,-3.3504,-0.6793,5.2768,-8.2699,0.0106,2.5391,-5.7603,0.7936,-0.5166,0.244,1.462,1.056,-23.01,32.18,18.18,86.04,53.9,-85.92,0,1013.59,43.691,30.453472,-84.31873,165.6,154.7645462,,0,55.329033,,0 / 18,46907,2018-04-21 23:51:27:091,,,
4.8162,-4.8956,-0.5837,5.4228,-8.1719,-0.2224,-4.5457,6.332,-0.899,-0.0961,-0.5564,-0.4331,1.056,-22.12,33.24,19.7,92.18,57.46,-89.89,0,1013.71,43.691,30.453472,-84.31873,165.6,154.7645462,,0,55.329033,,0 / 18,47006,2018-04-21 23:51:27:190,,,
6.2957,-9.5466,0.6725,5.7983,-7.8902,-0.6008,-0.6066,3.3327,-0.7035,0.1178,-0.434,-0.563,1.056,-22.34,32.11,21.15,92.24,55.03,-93.72,0,1013.71,43.691,30.453472,-84.31873,165.6,154.7645462,,0,55.329033,,0 / 18,47107,2018-04-21 23:51:27:291,,,
4.6069,-5.4753,-0.2209,5.8667,-7.8372,-0.6286,0.8875,-0.916,0.2978,0.129,0.0814,-0.0727,1.056,-23.29,31.84,21.58,92.64,53.03,-96.12,0,1013.88,52.607,30.453472,-84.31873,165.6,154.7645462,,0,55.329033,,0 / 18,47208,2018-04-21 23:51:27:392,,,
8.8249,-12.0912,-0.8675,5.4887,-8.1308,0.0026,-2.2627,3.256,0.6555,0.4937,0.6655,0.9682,1.056,-21.53,34.09,19.42,87.6,55.98,-89.97,0,1013.78,52.607,30.453472,-84.31873,165.6,154.7645462,,0,55.329033,,0 / 18,47306,2018-04-21 23:51:27:490,,,
5.8391,-7.0735,-1.2001,5.16,-8.3118,-0.7247,-1.7707,-0.3336,1.3542,-1.8334,-0.1908,0.2053,1.183,-20.26,33.04,20.29,91.63,57.81,-94.15,0,1013.78,52.607,30.453472,-84.31873,165.6,154.7645462,,0,55.329033,,0 / 18,47405,2018-04-21 23:51:27:589,,,
6.5675,-7.5599,-1.4625,5.1874,-8.235,-1.2298,-0.8178,-1.0788,0.4098,-0.8543,-0.599,-0.2377,1.183,-20.03,30.69,23.14,102.51,57.08,-103.34,0,1013.87,54.717,30.453472,-84.31873,165.6,154.7645462,,0,55.329033,,0 / 18,47506,2018-04-21 23:51:27:690,,,
3.9453,-10.3142,-2.7346,5.4982,-7.4463,-3.2494,1.8192,3.3608,0.9916,-1.343,-1.3508,-0.8533,1.183,-18.48,24.9,28.96,110.6,53.96,-112,0,1013.87,54.717,30.453472,-84.31873,165.6,154.7645462,,0,55.329033,,0 / 18,47606,2018-04-21 23:51:27:790,,,
6.7475,-8.6112,-4.402,5.4465,-7.1243,-3.9769,-1.5097,-4.1393,0.5558,-1.354,0.0169,0.4199,1.183,-17.87,23.06,30.96,116.55,49.38,-120.58,0,1013.77,54.717,30.453472,-84.31873,165.6,154.7645462,,0,55.329033,,0 / 18,47706,2018-04-21 23:51:27:890,,,
3.8186,-2.8192,-4.8331,5.1578,-7.063,-4.4437,1.3197,-3.8791,0.1371,0.6207,-0.3788,-0.3327,1.183,-16.63,18.96,34.31,128.44,45.91,-130.25,0,1013.68,52.845,30.453472,-84.31873,165.6,154.7645462,,0,55.329033,,0 / 18,47806,2018-04-21 23:51:27:990,,,
7.1927,-10.1693,-5.6277,5.3621,-7.0998,-4.1323,-1.5255,0.5724,0.4557,0.6852,0.0028,-0.6249,1.183,-16.42,21.89,32.7,117.63,46.36,-127.62,0,1013.75,52.845,30.453472,-84.31873,165.6,154.7645462,,0,55.329033,,0 / 18,47906,2018-04-21 23:51:28:090,,,
5.567,-7.884,-7.0578,5.2878,-7.0713,-4.2745,0.896,-1.5647,1.3148,0.5636,-0.8902,0.0419,1.183,-13.92,22.42,33.22,114.13,46.12,-128.95,0,1013.75,52.845,30.453472,-84.31873,165.6,154.7645462,,0,55.329033,,0 / 18,48006,2018-04-21 23:51:28:190,,,
4.8144,-9.91,-4.8106,5.0809,-7.4364,-3.8884,3.0735,1.5103,0.0346,0.8677,-0.5929,-0.134,1.183,-13.25,24.19,32.3,110.06,47.73,-128.66,0,1013.69,52.845,30.453472,-84.31873,165.6,154.7645462,,0,55.329033,,0 / 18,48106,2018-04-21 23:51:28:290,,,
3.1013,-10.1649,-1.7987,5.1085,-7.601,-3.5163,-0.1136,1.6563,-2.1521,-0.1991,1.1236,0.0592,1.183,-13.75,26.59,30.92,107.31,50.79,-124.54,0,1013.69,50.922,30.453472,-84.31873,165.6,154.7645462,,0,55.329033,,0 / 18,48206,2018-04-21 23:51:28:390,,,
8.0202,-8.5719,-1.9153,5.4391,-7.6375,-2.8846,-2.7366,0.0457,-0.4392,0.0918,1.0125,0.3701,1.183,-16.33,25.81,29.68,106.5,51.13,-117.94,0,1013.72,50.922,30.453472,-84.31873,165.6,154.7645462,,0,55.329033,,0 / 18,48307,2018-04-21 23:51:28:491,,,
5.2166,-6.0144,-1.4507,5.7315,-7.5918,-2.3981,1.3083,0.0179,-0.0295,0.5804,0.9355,-0.1325,1.183,-18.31,26.73,29.21,109.29,51.13,-117.94,0,1013.71,50.922,30.453472,-84.31873,165.6,154.7645462,,0,55.329033,,0 / 18,48405,2018-04-21 23:51:28:589,,,
5.7525,-6.4619,-2.5471,5.8459,-7.8032,-1.0828,0.2206,-1.319,1.1629,0.442,0.91,0.4869,1.183,-22.3,28.17,24.73,104.32,51.38,-106.42,0,1013.85,53.986,30.453472,-84.31873,165.6,154.7645462,,0,55.329033,,0 / 18,48505,2018-04-21 23:51:28:689,,,
6.8463,-7.4358,0.0134,5.4105,-8.1719,-0.427,-0.3737,-0.1909,-0.747,0.6943,-0.0962,0.6022,1.183,-22.16,31.93,22.32,95.89,55.32,-97.07,0,1013.85,53.986,30.453472,-84.31873,165.6,154.7645462,,0,55.329033,,0 / 18,48605,2018-04-21 23:51:28:789,,,
5.9908,-7.9822,-0.345,5.6349,-8.0296,-0.0987,-1.544,2.3376,0.757,0.3382,0.671,-0.1857,1.183,-23.82,32.82,19.45,92.95,54.94,-91,0,1013.87,53.986,30.453472,-84.31873,165.6,154.7645462,,0,55.329033,,0 / 18,48705,2018-04-21 23:51:28:889,,,
9.2121,-8.2849,0.7711,5.5858,-8.0597,-0.278,-0.0919,-0.766,-2.3334,-0.357,0.5178,0.1311,1.183,-24.33,32.7,19.03,90.98,55.29,-87.85,0,1013.87,52.877,30.453472,-84.31873,165.6,154.7645462,,0,55.329033,,0 / 18,48805,2018-04-21 23:51:28:989,,,
3.2287,-8.1482,0.5382,5.6659,-7.8699,-1.4829,2.4083,2.784,-0.0777,-1.1981,-1.7555,-0.2708,1.183,-21.91,30.77,24.19,101.03,53.34,-104.67,0,1013.51,52.877,30.453472,-84.31873,165.6,154.7645462,,0,55.329033,,0 / 18,48906,2018-04-21 23:51:29:090,,,
4.9653,-8.2615,-1.9965,5.532,-7.2534,-3.6084,0.2277,-0.0971,-0.7892,-0.9138,-1.0117,-0.26,1.183,-17.66,25.04,31.07,112.97,47.68,-123.12,0,1013.38,52.877,30.453472,-84.31873,165.6,154.7645462,,0,55.329033,,0 / 18,49006,2018-04-21 23:51:29:190,,,
