ACCELEROMETER X (m/s²),ACCELEROMETER Y (m/s²),ACCELEROMETER Z (m/s²),GRAVITY X (m/s²),GRAVITY Y (m/s²),GRAVITY Z (m/s²),LINEAR ACCELERATION X (m/s²),LINEAR ACCELERATION Y (m/s²),LINEAR ACCELERATION Z (m/s²),GYROSCOPE X (rad/s),GYROSCOPE Y (rad/s),GYROSCOPE Z (rad/s),LIGHT (lux),MAGNETIC FIELD X (μT),MAGNETIC FIELD Y (μT),MAGNETIC FIELD Z (μT),ORIENTATION Z (azimuth °),ORIENTATION X (pitch °),ORIENTATION Y (roll °),PROXIMITY (i),ATMOSPHERIC PRESSURE (hPa),SOUND LEVEL (dB),LOCATION Latitude : ,LOCATION Longitude : ,LOCATION Altitude ( m),LOCATION Altitude-google ( m),LOCATION Altitude-atmospheric pressure ( m),LOCATION Speed ( Kmh),LOCATION Accuracy ( m),LOCATION ORIENTATION (°),Satellites in range,Time since start in ms ,YYYY-MO-DD HH-MI-SS_SSS
0.0407,-0.0096,9.7543,0.0494,0.0153,9.8065,-0.0039,0.0067,-0.0187,0.0012,0,0.0012,241,-10.4,24.4,-32.4,22.25,-0.09,-0.29,3.1,1009.36,40.822,30.44514,-84.30046,146.92,NaN,,0,25.806452,,9-Aug,26,2018-04-16 19:52:03:070
0.0718,0.0239,9.7926,0.0493,0.0147,9.8065,-0.0039,0.0067,-0.0187,0.0012,0,0.0012,267,-10,24.4,-33.3,22.25,-0.09,-0.29,3.1,1009.36,40.822,30.44514,-84.30046,146.92,NaN,,0,25.806452,,9-Aug,126,2018-04-16 19:52:03:170
0.0431,0.0072,9.7926,0.0493,0.0147,9.8065,-0.0014,0.0164,-0.0259,0,0.0012,0.0012,267,-9.4,24.4,-34.3,20.16,-0.09,-0.29,3.1,1009.36,39.792,30.44514,-84.30046,146.92,NaN,,0,25.806452,,9-Aug,226,2018-04-16 19:52:03:270
0.0503,-0.0024,9.7686,0.0491,0.0139,9.8065,0.001,-0.017,-0.0379,-0.0012,-0.0012,0,269,-9.6,24.4,-33.6,20.16,-0.09,-0.29,3.1,1009.36,39.792,30.44514,-84.30046,146.92,NaN,,0,25.806452,,9-Aug,326,2018-04-16 19:52:03:370
0.0383,0,9.7734,0.0491,0.0139,9.8065,0.0109,-0.0184,-0.0379,-0.0012,-0.0012,0,269,-10.3,24.5,-32.5,21.45,-0.08,-0.29,3.1,1009.36,39.792,30.445145,-84.30046,143.47,NaN,,0,38.709675,,9-Aug,426,2018-04-16 19:52:03:470
0.0479,0.0311,9.7734,0.0489,0.0133,9.8065,0.0038,-0.0014,-0.0235,-0.0024,0.0012,0,267,-10.3,24.5,-32.5,21.45,-0.08,-0.29,3.1,1009.36,40.072,30.445145,-84.30046,143.47,NaN,,0,38.709675,,9-Aug,527,2018-04-16 19:52:03:571
0.0551,0,9.7782,0.0488,0.0131,9.8065,0.0063,-0.0127,-0.0283,-0.0012,0.0024,0.0012,267,-10.9,24.4,-31.5,24.28,-0.08,-0.29,3.1,1009.35,40.072,30.445145,-84.30046,143.47,NaN,,0,38.709675,,9-Aug,627,2018-04-16 19:52:03:671
0.0215,0,9.7806,0.0487,0.0127,9.8065,0.0063,-0.0127,-0.0283,-0.0012,0,0.0024,267,-10.9,24.5,-31.3,24.28,-0.08,-0.29,3.1,1009.35,40.072,30.445145,-84.30046,143.47,NaN,,0,38.709675,,9-Aug,726,2018-04-16 19:52:03:770
0.0383,0.012,9.771,0.0486,0.0127,9.8065,0.0136,0.0065,-0.0115,0,0.0012,0.0012,267,-10.8,24.4,-31.3,24.28,-0.07,-0.28,3.1,1009.35,38.883,30.445145,-84.30046,143.47,NaN,,0,38.709675,,9-Aug,826,2018-04-16 19:52:03:870
0.0455,0.012,9.7878,0.0486,0.0127,9.8065,0.0017,0.0353,-0.0211,0,0.0012,0.0012,267,-10.8,24.5,-31.6,24.28,-0.07,-0.28,3.1,1009.35,38.883,30.445145,-84.30046,143.47,NaN,,0,38.709675,,9-Aug,927,2018-04-16 19:52:03:971
0.0287,0.0335,9.783,0.0485,0.0126,9.8065,-0.0125,-0.0198,-0.0546,0.0012,0.0012,0,267,-10.8,24.6,-31.6,23.41,-0.07,-0.28,3.1,1009.36,38.883,30.445145,-84.30046,143.47,NaN,,0,38.709675,,9-Aug,1026,2018-04-16 19:52:04:070
0.0575,-0.0072,9.7662,0.048,0.0127,9.8065,0.0095,-0.0198,-0.0403,-0.0012,0,-0.0012,267,-10.6,24.7,-31.5,23.42,-0.07,-0.28,3.1,1009.36,41.047,30.445145,-84.30046,143.47,NaN,,0,38.709675,,9-Aug,1126,2018-04-16 19:52:04:170
0.0311,-0.0072,9.7782,0.0481,0.0126,9.8065,0.0096,-0.0192,-0.0307,0.0024,0,0.0012,267,-10.6,24.7,-31.3,23.42,-0.07,-0.28,3.1,1009.37,41.047,30.445145,-84.30046,143.47,NaN,,0,38.709675,,9-Aug,1226,2018-04-16 19:52:04:270
0.0694,0.0263,9.8189,0.0478,0.0112,9.8065,0.0096,-0.0192,-0.0307,-0.0012,0.0012,0.0012,267,-10.6,24.7,-31.3,23.42,-0.07,-0.28,3.1,1009.37,41.047,30.445145,-84.30046,143.47,NaN,,0,38.709675,,9-Aug,1326,2018-04-16 19:52:04:370
0.0287,-0.0048,9.7926,0.0479,0.0112,9.8065,-0.0025,-0.0016,-0.0451,0.0024,0,0.0012,267,-10.9,24.7,-31.2,23.43,-0.07,-0.28,3.1,1009.36,41.066,30.44515,-84.30047,141.73,NaN,,0,38.709675,,10-Aug,1426,2018-04-16 19:52:04:470
0.0551,0.0144,9.771,0.0478,0.0106,9.8065,0.0072,0.0036,-0.0355,0,-0.0024,0,267,-10.9,24.6,-31.2,23.43,-0.07,-0.28,3.1,1009.36,41.066,30.44515,-84.30047,141.73,NaN,,0,38.709675,,10-Aug,1526,2018-04-16 19:52:04:570
0.0239,-0.0096,9.7758,0.0478,0.0106,9.8065,-0.0044,-0.015,-0.0283,0,-0.0024,0,269,-10.9,24.6,-31.4,23.43,-0.06,-0.28,3.1,1009.36,41.066,30.44515,-84.30047,141.73,NaN,,0,38.709675,,10-Aug,1626,2018-04-16 19:52:04:670
0.0551,0.012,9.7686,0.0474,0.0101,9.8065,0.0053,-0.0077,-0.0451,0,-0.0012,0.0012,267,-10.9,24.5,-31.3,23.43,-0.06,-0.28,3.1,1009.36,41.066,30.44515,-84.30047,141.73,NaN,,0,38.709675,,10-Aug,1726,2018-04-16 19:52:04:770
0.0335,-0.0048,9.7567,0.0474,0.0101,9.8065,0.0029,-0.0244,-0.0283,-0.0012,0,0.0012,267,-10.8,24.5,-31.5,23.43,-0.06,-0.28,3.1,1009.36,43.34,30.44515,-84.30047,141.73,NaN,,0,38.709675,,10-Aug,1826,2018-04-16 19:52:04:870
0.0623,0.0192,9.7782,0.0474,0.0101,9.8065,0.0029,-0.0244,-0.0283,0.0012,0,0,267,-10.8,24.5,-31.5,23.43,-0.06,-0.28,3.1,1009.36,43.34,30.44515,-84.30047,141.73,NaN,,0,38.709675,,10-Aug,1926,2018-04-16 19:52:04:970
0.0311,0.0239,9.7806,0.047,0.0097,9.8065,-0.0163,0.014,-0.0259,-0.0012,0,0.0012,267,-10.7,24.6,-31.5,23.43,-0.06,-0.28,3.1,1009.36,43.34,30.44515,-84.30047,141.73,NaN,,0,38.709675,,10-Aug,2026,2018-04-16 19:52:05:070
0.0383,0.012,9.8093,0.0466,0.0083,9.8065,-0.018,-0.0257,-0.0235,-0.0012,0.0012,0.0012,269,-10.8,24.6,-31.2,23.44,-0.06,-0.27,3.1,1009.36,45.19,30.44515,-84.30047,141.73,NaN,,0,38.709675,,10-Aug,2126,2018-04-16 19:52:05:170
0.0575,-0.0072,9.7686,0.0466,0.0083,9.8065,0.006,-0.0059,-0.0331,-0.0012,0.0012,0.0012,269,-10.8,24.5,-31.4,23.44,-0.05,-0.27,3.1,1009.36,45.19,30.44515,-84.30047,141.73,NaN,,0,38.709675,,10-Aug,2226,2018-04-16 19:52:05:270
0.0431,0.0024,9.7686,0.0466,0.0083,9.8065,7.00E-04,0.0085,-0.0307,0.0012,0.0012,0,269,-10.7,24.4,-31.3,23.44,-0.05,-0.27,3.1,1009.36,45.19,30.44515,-84.30047,141.73,NaN,,0,38.709675,,10-Aug,2326,2018-04-16 19:52:05:370
0.0527,0.0048,9.7878,0.0473,0.0083,9.8065,0.0053,-0.0035,-0.0187,0.0037,0,0.0012,269,-10.9,24.3,-31.5,24.3,-0.05,-0.28,3.1,1009.36,40.938,30.445156,-84.30047,138.15,NaN,,0,25.806452,,10-Aug,2426,2018-04-16 19:52:05:470
0.0335,-0.0024,9.7615,0.0474,0.0083,9.8065,0.0053,-0.0035,-0.0187,0.0037,0,0.0012,267,-10.9,24.4,-31.6,24.29,-0.05,-0.28,3.1,1009.36,40.938,30.445156,-84.30047,138.15,NaN,,0,25.806452,,10-Aug,2526,2018-04-16 19:52:05:570
0.0742,0.0192,9.7734,0.0477,0.0085,9.8065,0.0196,0.0204,-0.0307,-0.0024,0.0012,-0.0012,267,-10.8,24.4,-31.5,24.29,-0.05,-0.28,3.1,1009.36,40.938,30.445156,-84.30047,138.15,NaN,,0,25.806452,,10-Aug,2626,2018-04-16 19:52:05:670
0.0407,-0.0215,9.7758,0.0477,0.0085,9.8065,-0.0101,0.0031,-0.0283,0,0.0012,0,267,-10.8,24.4,-31.5,24.29,-0.05,-0.28,3.1,1009.35,40.522,30.445156,-84.30047,138.15,NaN,,0,25.806452,,10-Aug,2726,2018-04-16 19:52:05:770
0.0263,-0.0168,9.7926,0.0484,0.0089,9.8065,-0.0221,-0.0257,-0.0139,0,0,0.0012,267,-10.9,24.5,-31.4,23.44,-0.05,-0.28,3.1,1009.34,40.522,30.445156,-84.30047,138.15,NaN,,0,25.806452,,10-Aug,2826,2018-04-16 19:52:05:870
0.0551,0.0335,9.7974,0.0481,0.0086,9.8065,0.0122,0.0035,-0.0163,0.0012,-0.0012,0,267,-10.8,24.5,-31.4,23.43,-0.05,-0.28,3.1,1009.34,40.522,30.445156,-84.30047,138.15,NaN,,0,25.806452,,10-Aug,2926,2018-04-16 19:52:05:970
0.0383,-0.0144,9.7686,0.0477,0.0084,9.8065,0.0122,0.0035,-0.0163,0.0012,-0.0012,0,267,-10.8,24.5,-31.6,23.42,-0.05,-0.28,3.1,1009.34,40.522,30.445156,-84.30047,138.15,NaN,,0,25.806452,,10-Aug,3026,2018-04-16 19:52:06:070
0.0479,0.0144,9.7806,0.0477,0.0084,9.8065,-0.0094,-0.0084,-0.0451,-0.0012,-0.0012,0.0024,267,-10.9,24.5,-31.8,23.43,-0.05,-0.28,3.1,1009.34,38.815,30.445156,-84.30047,138.15,NaN,,0,25.806452,,10-Aug,3126,2018-04-16 19:52:06:170
0.0527,0,9.7686,0.0474,0.0081,9.8065,0.0053,-0.0081,-0.0379,-0.0024,-0.0012,0,269,-10.9,24.4,-31.6,24.29,-0.05,-0.28,3.1,1009.34,38.815,30.445156,-84.30047,138.15,NaN,,0,25.806452,,10-Aug,3226,2018-04-16 19:52:06:270
0.0551,-0.0263,9.771,0.0474,0.0081,9.8065,0.0101,0.004,-0.0331,-0.0012,0.0012,0,269,-10.9,24.4,-31.6,24.29,-0.05,-0.28,3.1,1009.34,38.815,30.445156,-84.30047,138.15,NaN,,0,25.806452,,10-Aug,3326,2018-04-16 19:52:06:370
0.0527,0.0096,9.7782,0.0474,0.008,9.8065,0.0078,-4.00E-04,-0.0475,0,0.0012,0.0012,269,-11,24.4,-31.6,24.29,-0.05,-0.28,3.1,1009.32,40.725,30.44516,-84.30048,134.81,NaN,,0,25.806452,,10-Aug,3426,2018-04-16 19:52:06:470
0.0479,-0.0048,9.7902,0.0473,0.0076,9.8065,0.003,-0.0076,-0.0379,0,0.0012,0.0012,267,-11.1,24.4,-31.6,24.29,-0.05,-0.28,3.1,1009.32,40.725,30.44516,-84.30048,134.81,NaN,,0,25.806452,,10-Aug,3526,2018-04-16 19:52:06:570
0.0383,-0.0311,9.7662,0.0473,0.0076,9.8065,-0.009,-0.0387,-0.0403,-0.0012,0,0,267,-11.1,24.4,-31.6,24.3,-0.04,-0.28,3.1,1009.31,40.725,30.44516,-84.30048,134.81,NaN,,0,25.806452,,10-Aug,3626,2018-04-16 19:52:06:670
0.0431,-0.0096,9.771,0.0472,0.0074,9.8065,-0.009,-0.0387,-0.0403,-0.0012,0,0.0012,267,-11,24.4,-31.3,24.31,-0.04,-0.28,3.1,1009.31,40.725,30.44516,-84.30048,134.81,NaN,,0,25.806452,,10-Aug,3726,2018-04-16 19:52:06:770
0.0239,-0.0215,9.7758,0.0471,0.0067,9.8065,-0.0017,0.0076,-0.0187,-0.0012,0,0,267,-10.9,24.4,-31.3,24.31,-0.04,-0.28,3.1,1009.31,37.353,30.44516,-84.30048,134.81,NaN,,0,25.806452,,10-Aug,3826,2018-04-16 19:52:06:870
0.0527,-0.0239,9.7662,0.0471,0.006,9.8065,-0.0039,-0.0089,-0.0499,0.0012,0,0.0024,267,-10.9,24.3,-31.2,24.31,-0.04,-0.28,3.1,1009.31,37.353,30.44516,-84.30048,134.81,NaN,,0,25.806452,,10-Aug,3926,2018-04-16 19:52:06:970
0.0335,0.0072,9.7686,0.0471,0.006,9.8065,-0.0136,0.0016,-0.0379,0.0012,0,0.0024,267,-10.9,24.3,-31.2,24.31,-0.04,-0.28,3.1,1009.31,37.353,30.44516,-84.30048,134.81,NaN,,0,25.806452,,10-Aug,4026,2018-04-16 19:52:07:070
0.0551,0.0072,9.7806,0.0472,0.0055,9.8065,-0.016,-0.0199,-0.0379,0,0,0.0012,267,-10.9,24.3,-31.1,24.31,-0.03,-0.28,3.1,1009.31,37.943,30.44516,-84.30048,134.81,NaN,,0,25.806452,,10-Aug,4126,2018-04-16 19:52:07:170
0.0359,-0.012,9.7758,0.0472,0.0055,9.8065,-0.006,-0.0146,-0.0451,0,0.0012,0.0012,267,-10.9,24.2,-31.1,24.31,-0.03,-0.28,3.1,1009.31,37.943,30.44516,-84.30048,134.81,NaN,,0,25.806452,,10-Aug,4226,2018-04-16 19:52:07:270
0.0335,-0.0144,9.771,0.0467,0.005,9.8065,-0.006,-0.0146,-0.0451,0.0012,0,0.0012,267,-10.8,24.3,-31.1,24.32,-0.03,-0.27,3.1,1009.31,37.943,30.44516,-84.30048,134.81,NaN,,0,25.806452,,10-Aug,4326,2018-04-16 19:52:07:370
0.0144,-0.0144,9.7782,0.0467,0.005,9.8065,-0.0275,-0.0361,-0.0283,0,0,0.0024,267,-10.9,24.3,-31.1,24.32,-0.03,-0.27,3.1,1009.31,38.045,30.445164,-84.30049,132.37,NaN,,0,38.709675,,10-Jul,4426,2018-04-16 19:52:07:470
0.0359,-0.0048,9.7686,0.0467,0.005,9.8065,-0.0108,-0.0097,-0.0379,-0.0024,0.0012,0.0012,267,-11.1,24.4,-31.5,24.32,-0.03,-0.27,3.1,1009.31,38.045,30.445164,-84.30049,132.37,NaN,,0,38.709675,,10-Jul,4526,2018-04-16 19:52:07:570
0.0359,-0.0096,9.7806,0.0467,0.005,9.8065,-0.0154,0,-0.0259,-0.0024,0.0012,0.0012,269,-11.1,24.4,-31.5,24.32,-0.03,-0.27,3.1,1009.32,38.045,30.445164,-84.30049,132.37,NaN,,0,38.709675,,10-Jul,4626,2018-04-16 19:52:07:670
0.0503,-0.0024,9.7686,0.0463,0.0046,9.8065,-0.0128,-0.0142,-0.069,0.0012,0,0.0012,269,-11,24.3,-31.5,24.32,-0.03,-0.27,3.1,1009.32,38.045,30.445164,-84.30049,132.37,NaN,,0,38.709675,,10-Jul,4726,2018-04-16 19:52:07:770
0.0599,-0.0072,9.7639,0.0463,0.0046,9.8065,0.0136,-0.0118,-0.0427,0,0,0.0012,269,-10.4,24.2,-32.2,22.3,-0.03,-0.27,3.1,1009.31,37.043,30.445164,-84.30049,132.37,NaN,,0,38.709675,,10-Jul,4826,2018-04-16 19:52:07:870
0.0431,0.0048,9.7854,0.0464,0.0046,9.8065,0.0136,-0.0118,-0.0427,0,0.0037,-0.0012,269,-10,24.2,-33,22.29,-0.03,-0.27,3.1,1009.31,37.043,30.445164,-84.30049,132.37,NaN,,0,38.709675,,10-Jul,4926,2018-04-16 19:52:07:970
0.0431,0.0048,9.7854,0.0464,0.0046,9.8065,0.0087,0.0049,-0.0547,-0.0012,-0.0012,0.0024,267,-9.7,24.2,-34,22.28,-0.03,-0.27,3.1,1009.31,37.043,30.445164,-84.30049,132.37,NaN,,0,38.709675,,10-Jul,5026,2018-04-16 19:52:08:070
0.0479,0.0192,9.7758,0.0464,0.0046,9.8065,0.0183,-0.0118,-0.0427,0.0012,-0.0012,0.0012,267,-9.6,24.2,-34.2,22.28,-0.03,-0.27,3.1,1009.32,37.812,30.445164,-84.30049,132.37,NaN,,0,38.709675,,10-Jul,5127,2018-04-16 19:52:08:171
0.0575,0.0096,9.7806,0.0464,0.0046,9.8065,-0.0129,-0.019,-0.0499,0.0012,-0.0012,0.0012,267,-9.6,24.2,-34.2,22.28,-0.03,-0.27,3.1,1009.31,37.812,30.445164,-84.30049,132.37,NaN,,0,38.709675,,10-Jul,5227,2018-04-16 19:52:08:271
0.0335,-0.012,9.7686,0.0461,0.0044,9.8065,-0.0126,-0.0163,-0.0379,-0.0012,-0.0024,0.0012,267,-10,24.1,-33.1,22.29,-0.03,-0.27,3.1,1009.31,37.812,30.445164,-84.30049,132.37,NaN,,0,38.709675,,10-Jul,5326,2018-04-16 19:52:08:370
0.0287,-0.0072,9.7998,0.0461,0.0044,9.8065,-0.0198,-0.002,-0.0307,0.0012,0,0.0012,267,-10.4,24.1,-31.8,22.29,-0.03,-0.27,3.1,1009.31,40.282,30.445162,-84.3005,131.51,NaN,,0,38.709675,,9-Jul,5426,2018-04-16 19:52:08:470
0.0311,-0.0072,9.783,0.0461,0.0044,9.8065,-0.0198,-0.002,-0.0307,0.0012,0,0.0012,267,-10.7,24.1,-31.1,24.32,-0.03,-0.27,3.1,1009.31,40.282,30.445162,-84.3005,131.51,NaN,,0,38.709675,,9-Jul,5526,2018-04-16 19:52:08:570
0.0407,-0.0048,9.7686,0.0461,0.0044,9.8065,-0.0078,-0.0139,-0.0547,0,0,0.0012,267,-10.9,24.3,-30.9,24.32,-0.03,-0.27,3.1,1009.32,40.282,30.445162,-84.3005,131.51,NaN,,0,38.709675,,9-Jul,5626,2018-04-16 19:52:08:670
0.0646,0.012,9.7758,0.0461,0.0044,9.8065,0.009,0.0028,-0.0571,0,0,0.0012,267,-11,24.3,-31,24.32,-0.03,-0.27,3.1,1009.32,41.226,30.445162,-84.3005,131.51,NaN,,0,38.709675,,9-Jul,5726,2018-04-16 19:52:08:770
0.0287,-0.0096,9.7471,0.0461,0.0044,9.8065,-0.0078,0.0028,-0.014,0,0,0.0012,267,-11,24.3,-31,24.32,-0.03,-0.27,3.1,1009.32,41.226,30.445162,-84.3005,131.51,NaN,,0,38.709675,,9-Jul,5826,2018-04-16 19:52:08:870
0.0503,0,9.7782,0.0461,0.0044,9.8065,-0.0078,0.0124,-0.0259,0.0012,-0.0012,0.0024,267,-10.9,24.3,-31.1,24.32,-0.03,-0.27,3.1,1009.32,41.226,30.445162,-84.3005,131.51,NaN,,0,38.709675,,9-Jul,5926,2018-04-16 19:52:08:970
0.0239,0.0168,9.7878,0.0461,0.0044,9.8065,0.0018,0.0387,-0.0259,-0.0012,-0.0024,0.0012,267,-10.8,24.3,-30.9,24.32,-0.03,-0.27,3.1,1009.32,36.958,30.445162,-84.3005,131.51,NaN,,0,38.709675,,9-Jul,6026,2018-04-16 19:52:09:070
0.0215,-0.0144,9.7639,0.046,0.0047,9.8065,0.0018,0.0387,-0.0259,-0.0012,-0.0024,0.0012,267,-10.9,24.3,-30.9,24.32,-0.03,-0.27,3.1,1009.32,36.958,30.445162,-84.3005,131.51,NaN,,0,38.709675,,9-Jul,6126,2018-04-16 19:52:09:170
0.0335,0,9.795,0.046,0.0047,9.8065,-0.0125,-0.0047,-0.0116,0,0,0,269,-10.9,24.4,-30.9,24.32,-0.03,-0.27,3.1,1009.32,36.958,30.445162,-84.3005,131.51,NaN,,0,38.709675,,9-Jul,6226,2018-04-16 19:52:09:270
0.0551,-0.0096,9.7758,0.046,0.0047,9.8065,-0.0125,0.0144,-0.0547,0,0,0.0012,269,-10.9,24.4,-30.9,24.32,-0.03,-0.27,3.1,1009.32,36.606,30.445162,-84.3005,131.51,NaN,,0,38.709675,,9-Jul,6326,2018-04-16 19:52:09:370
0.0239,0.012,9.7902,0.0459,0.0047,9.8065,-0.0026,-0.0117,-0.0403,0.0024,-0.0012,0.0024,267,-10.8,24.4,-30.9,24.32,-0.03,-0.27,3.1,1009.31,36.606,30.445162,-84.3005,131.51,NaN,,0,38.709675,,9-Jul,6426,2018-04-16 19:52:09:470
0.0407,0,9.7806,0.0457,0.0046,9.8065,-0.0046,-0.0043,-0.0259,0.0012,0,0.0024,267,-10.9,24.4,-30.9,24.32,-0.03,-0.27,3.1,1009.31,36.606,30.445162,-84.3005,131.51,NaN,,0,38.709675,,9-Jul,6526,2018-04-16 19:52:09:570
0.0383,-0.0024,9.7591,0.045,0.004,9.8065,-0.0046,-0.0043,-0.0259,0.0012,0,0.0024,269,-10.9,24.4,-30.8,24.32,-0.03,-0.27,3.1,1009.31,49.819,30.445162,-84.3005,131.51,NaN,,0,38.709675,,9-Jul,6626,2018-04-16 19:52:09:670
0.0575,0.0096,9.7854,0.045,0.004,9.8065,-0.0043,-0.0016,-0.0283,0,0,0,269,-11,24.4,-30.9,24.33,-0.02,-0.26,3.1,1009.32,49.819,30.445162,-84.3005,131.51,NaN,,0,38.709675,,9-Jul,6726,2018-04-16 19:52:09:770
0.0287,0.0096,9.795,0.045,0.004,9.8065,0.0077,-0.0232,-0.0403,0.0037,0.0012,0.0024,267,-10.9,24.5,-31,24.33,-0.02,-0.26,3.1,1009.32,49.819,30.445162,-84.3005,131.51,NaN,,0,38.709675,,9-Jul,6826,2018-04-16 19:52:09:870
0.0359,-0.012,9.7567,0.0442,0.0035,9.8066,-0.0063,0.0083,-0.0379,-0.0012,-0.0012,0.0012,267,-10.8,24.5,-31.2,23.47,-0.02,-0.26,3.1,1009.32,49.819,30.445162,-84.3005,131.51,NaN,,0,38.709675,,9-Jul,6926,2018-04-16 19:52:09:970
0.0311,0.0192,9.7926,0.0442,0.0035,9.8066,-0.0129,0.0159,-0.014,0.0024,-0.0012,0.0024,267,-10.9,24.4,-31.3,23.47,-0.02,-0.26,3.1,1009.32,37.329,30.445162,-84.3005,131.51,NaN,,0,38.709675,,9-Jul,7026,2018-04-16 19:52:10:070
0.0311,-0.0072,9.7519,0.044,0.0033,9.8066,-9.00E-04,-0.0033,-0.0451,-0.0012,0,0.0012,267,-10.9,24.4,-31.3,24.34,-0.02,-0.26,3.1,1009.32,37.329,30.445162,-84.3005,131.51,NaN,,0,38.709675,,9-Jul,7126,2018-04-16 19:52:10:170
0.0215,0.0144,9.771,0.0433,0.0029,9.8066,0.019,0.0067,-0.0427,0,0,0.0012,267,-10.8,24.4,-31.2,24.34,-0.02,-0.25,3.1,1009.32,37.329,30.445162,-84.3005,131.51,NaN,,0,38.709675,,9-Jul,7226,2018-04-16 19:52:10:270
0.0359,0.0168,9.7782,0.0433,0.0029,9.8066,0.019,0.0067,-0.0427,0,0,0.0012,267,-10.8,24.4,-31.2,24.34,-0.02,-0.25,3.1,1009.33,37.608,30.445162,-84.3005,131.51,NaN,,0,38.709675,,9-Jul,7326,2018-04-16 19:52:10:370
0.0479,0,9.783,0.0432,0.0027,9.8066,0.0046,0.0189,-0.0092,0.0012,0,0,267,-10.8,24.4,-31.2,24.34,-0.02,-0.25,3.1,1009.33,37.608,30.445162,-84.3005,131.51,NaN,,0,38.709675,,9-Jul,7426,2018-04-16 19:52:10:470
0.0215,0.0096,9.8093,0.0434,0.0028,9.8066,-0.0219,0.0068,0.0028,0,-0.0012,0,267,-10.9,24.4,-31.6,24.34,-0.02,-0.25,3.1,1009.32,37.608,30.445162,-84.3005,131.51,NaN,,0,38.709675,,10-Jul,7526,2018-04-16 19:52:10:570
0.0718,0.0168,9.783,0.043,0.0032,9.8066,0.0216,0.0016,-0.0212,0.0049,-0.0012,0.0012,267,-10.5,24.4,-32.4,22.32,-0.02,-0.25,3.1,1009.32,37.255,30.445162,-84.3005,131.51,NaN,,0,38.709675,,10-Jul,7626,2018-04-16 19:52:10:670
0.0311,0.0048,9.7734,0.0441,0.0035,9.8066,-0.0058,0.0132,-0.0475,0.0012,0,0,267,-9.8,24.4,-33.5,22.31,-0.02,-0.26,3.1,1009.32,37.255,30.445162,-84.3005,131.51,NaN,,0,38.709675,,10-Jul,7726,2018-04-16 19:52:10:770
0.0215,0.0287,9.7878,0.0452,0.0039,9.8065,-0.0236,0.0248,-0.0188,0.0012,0,-0.0012,267,-9.2,24.5,-34.7,19.46,-0.02,-0.26,3.1,1009.33,37.255,30.445162,-84.3005,131.51,NaN,,0,38.709675,,10-Jul,7826,2018-04-16 19:52:10:870
0.0742,0.0287,9.7878,0.0452,0.0039,9.8065,-0.0236,0.0248,-0.0188,0.0012,0,-0.0012,267,-9.2,24.5,-34.7,19.46,-0.02,-0.26,3.1,1009.33,38.026,30.445162,-84.3005,131.51,NaN,,0,38.709675,,10-Jul,7926,2018-04-16 19:52:10:970
0.0239,0.0024,9.7686,0.0448,0.0038,9.8065,0.0319,-0.0014,-0.0211,-0.0012,0.0024,0.0012,267,-9.3,24.4,-34.4,20.22,-0.02,-0.26,3.1,1009.33,38.026,30.445162,-84.3005,131.51,NaN,,0,38.709675,,10-Jul,8027,2018-04-16 19:52:11:071
0.0623,-0.012,9.7734,0.0451,0.004,9.8065,-0.0211,-0.0184,-0.0283,0.0012,0,-0.0012,267,-9.3,24.4,-34.7,20.21,-0.02,-0.26,3.1,1009.32,38.026,30.445162,-84.3005,131.51,NaN,,0,38.709675,,10-Jul,8127,2018-04-16 19:52:11:171
0.0192,0.0192,9.795,0.0448,0.004,9.8065,-0.04,-0.0016,-0.0427,0.0012,0.0012,0.0012,267,-9.2,24.3,-34.6,20.21,-0.02,-0.26,3.1,1009.32,38.026,30.445162,-84.3005,131.51,NaN,,0,38.709675,,10-Jul,8226,2018-04-16 19:52:11:270
0.0742,0.0311,9.8046,0.0442,0.0041,9.8066,0.0277,0.0222,-0.0116,0.0012,0,0.0024,267,-9.2,24.3,-34.4,20.21,-0.02,-0.26,3.1,1009.32,38.878,30.445162,-84.3005,131.51,NaN,,0,38.709675,,10-Jul,8326,2018-04-16 19:52:11:370
0.0383,0.0168,9.7615,0.0442,0.0041,9.8066,0.0277,0.0222,-0.0116,0.0012,0,0.0024,269,-9.1,24.4,-34.2,20.22,-0.02,-0.26,3.1,1009.33,38.878,30.445168,-84.3005,131.82,NaN,,0,25.806452,,9-Jul,8426,2018-04-16 19:52:11:470
0.0718,0.0096,9.7926,0.0438,0.0048,9.8066,0.004,0.0239,-0.0475,0,0.0012,0.0024,269,-9.3,24.6,-34.2,20.22,-0.02,-0.26,3.1,1009.32,38.878,30.445168,-84.3005,131.82,NaN,,0,25.806452,,9-Jul,8526,2018-04-16 19:52:11:570
0.0431,-0.0072,9.7375,0.0449,0.0048,9.8065,-0.0353,-0.0216,0.0579,0.0012,-0.0012,0.0012,267,-9.3,24.6,-34.2,20.22,-0.02,-0.26,3.1,1009.32,41.395,30.445168,-84.3005,131.82,NaN,,0,25.806452,,9-Jul,8627,2018-04-16 19:52:11:671
0.0694,-0.0215,9.7782,0.0446,0.0047,9.8065,0.0249,-0.0263,-0.0283,-0.0012,-0.0024,0.0024,267,-9.8,24.8,-32.9,21.49,-0.03,-0.26,3.1,1009.33,41.395,30.445168,-84.3005,131.82,NaN,,0,25.806452,,9-Jul,8726,2018-04-16 19:52:11:770
0.0575,-0.0215,9.7878,0.0446,0.0047,9.8065,-0.0087,-0.0119,-0.0188,0.0012,0,0.0012,267,-10.4,24.8,-32,21.5,-0.03,-0.26,3.1,1009.33,41.395,30.445168,-84.3005,131.82,NaN,,0,25.806452,,9-Jul,8826,2018-04-16 19:52:11:870
0.0263,-0.0192,9.7854,0.0445,0.0045,9.8065,-0.0109,-0.0189,-0.0379,0.0012,0,0.0012,267,-10.7,24.9,-31.6,23.46,-0.03,-0.26,3.1,1009.33,37.267,30.445168,-84.3005,131.82,NaN,,0,25.806452,,9-Jul,8926,2018-04-16 19:52:11:970
0.0527,-0.0215,9.7567,0.0444,0.0043,9.8065,-0.0085,0.0173,-0.0379,0.0012,0,0,267,-10.7,24.9,-31.7,23.46,-0.03,-0.26,3.1,1009.32,37.267,30.445168,-84.3005,131.82,NaN,,0,25.806452,,9-Jul,9026,2018-04-16 19:52:12:070
0.0407,-0.0215,9.7519,0.0444,0.0043,9.8065,-0.0085,0.0173,-0.0379,0,0.0012,0.0012,267,-10.7,25,-31.5,23.46,-0.03,-0.26,3.1,1009.32,37.267,30.445168,-84.3005,131.82,NaN,,0,25.806452,,9-Jul,9126,2018-04-16 19:52:12:170
0.0599,0.0215,9.7662,0.0443,0.0038,9.8066,0.0155,0.0177,-0.0403,0.0012,0.0012,0.0012,267,-10.5,25.1,-31.3,21.51,-0.02,-0.26,3.1,1009.32,39.985,30.445168,-84.3005,131.82,NaN,,0,25.806452,,9-Jul,9226,2018-04-16 19:52:12:270
0.0335,-0.0263,9.7591,0.0441,0.0031,9.8066,-0.001,0.016,-0.0164,-0.0012,-0.0012,0.0012,267,-10.4,25.2,-30.9,21.52,-0.02,-0.26,3.1,1009.34,39.985,30.445168,-84.3005,131.82,NaN,,0,25.806452,,9-Jul,9326,2018-04-16 19:52:12:370
0.0455,0.0048,9.7686,0.044,0.0029,9.8066,0.0134,-0.0053,-0.0379,-0.0012,-0.0012,0.0012,267,-10.4,25.2,-30.9,21.52,-0.02,-0.26,3.1,1009.34,39.985,30.445175,-84.3005,132.17,NaN,,0,25.806452,,10-Jul,9426,2018-04-16 19:52:12:470
0.0527,0.0144,9.7686,0.0438,0.0025,9.8066,-0.015,-0.024,-0.0307,0,0.0012,0.0012,267,-10.4,25.3,-31.1,21.52,-0.02,-0.26,3.1,1009.34,39.985,30.445175,-84.3005,132.17,NaN,,0,25.806452,,10-Jul,9526,2018-04-16 19:52:12:570
0.0551,0.0335,9.7232,0.0438,0.0021,9.8066,0.0113,0.0314,-0.0834,0.0012,0,0,267,-10.1,25.5,-31.7,20.76,-0.01,-0.26,3.1,1009.34,39.273,30.445175,-84.3005,132.17,NaN,,0,25.806452,,10-Jul,9626,2018-04-16 19:52:12:670
0.067,0.0144,9.7662,0.0438,0.0021,9.8066,0.0113,0.0314,-0.0834,0,0.0012,0.0012,267,-9.5,25.6,-32.8,20.76,-0.01,-0.26,3.1,1009.34,39.273,30.445175,-84.3005,132.17,NaN,,0,25.806452,,10-Jul,9726,2018-04-16 19:52:12:770
0.0383,-0.0287,9.7686,0.0438,0.0023,9.8066,0.0137,0.0192,-0.0379,0,0,0,267,-9,25.5,-34,18.79,-0.01,-0.26,3.1,1009.34,39.273,30.445175,-84.3005,132.17,NaN,,0,25.806452,,10-Jul,9827,2018-04-16 19:52:12:871
0.0335,-0.0024,9.7854,0.0443,0.0019,9.8066,-0.0012,-0.0043,-0.0451,0.0012,-0.0012,-0.0012,267,-8.8,25.5,-34.4,18.79,-0.01,-0.26,3.1,1009.34,37.758,30.445175,-84.3005,132.17,NaN,,0,25.806452,,10-Jul,9926,2018-04-16 19:52:12:970
0.0192,-0.0048,9.7686,0.0443,0.0018,9.8066,-0.0251,-0.0066,-0.0379,0.0012,-0.0012,-0.0012,267,-8.7,25.5,-34.7,18.78,-0.01,-0.26,3.1,1009.34,37.758,30.445175,-84.3005,132.17,NaN,,0,25.806452,,10-Jul,10026,2018-04-16 19:52:13:070
0.0575,-0.0024,9.7615,0.0435,0.0011,9.8066,0.0139,-0.0203,-0.0427,0.0012,-0.0012,0,267,-8.6,25.5,-34.3,18.79,-0.01,-0.25,3.1,1009.34,37.758,30.445175,-84.3005,132.17,NaN,,0,25.806452,,10-Jul,10127,2018-04-16 19:52:13:171
0.0407,-0.0096,9.8812,0.0435,0.0011,9.8066,0.0139,-0.0203,-0.0427,0,-0.0024,0.0012,267,-8.6,25.5,-34.3,18.79,-0.01,-0.25,3.1,1009.34,41.711,30.445175,-84.3005,132.17,NaN,,0,25.806452,,10-Jul,10226,2018-04-16 19:52:13:270
0.0479,0.0335,9.7064,0.0435,0.0011,9.8066,-0.0124,0.0468,-0.002,0.0037,-0.0012,-0.0012,267,-8.9,25.6,-33.6,18.79,-0.01,-0.25,3.1,1009.34,41.711,30.445175,-84.3005,132.17,NaN,,0,25.806452,,10-Jul,10326,2018-04-16 19:52:13:370
0.0215,0.0479,9.7423,0.0439,0.0027,9.8066,-0.0224,0.0452,-0.0642,-0.0012,0.0012,0.0012,267,-9.5,25.6,-32.4,18.8,-0.02,-0.26,3.1,1009.34,41.711,30.445185,-84.3005,132.72,NaN,,0,25.806452,,9-Jul,10426,2018-04-16 19:52:13:470
0.0623,0.0144,9.7926,0.0441,0.0037,9.8066,0.0038,-0.0133,-0.0355,-0.0037,0,0,267,-10,25.6,-31.4,20.76,-0.02,-0.26,3.1,1009.32,39.52,30.445185,-84.3005,132.72,NaN,,0,25.806452,,9-Jul,10526,2018-04-16 19:52:13:570
0.0551,0.0024,9.7758,0.0443,0.0042,9.8065,0.0251,-0.0137,-0.0427,-0.0037,0,0,267,-10,25.6,-31.6,20.75,-0.02,-0.26,3.1,1009.32,39.52,30.445185,-84.3005,132.72,NaN,,0,25.806452,,9-Jul,10626,2018-04-16 19:52:13:670
0.0479,0.0072,9.783,0.0447,0.0045,9.8065,0.0032,0.0027,-0.0235,-0.0024,0.0012,0,267,-10,25.7,-31.4,20.76,-0.02,-0.26,3.1,1009.32,39.52,30.445185,-84.3005,132.72,NaN,,0,25.806452,,9-Jul,10726,2018-04-16 19:52:13:770
0.0575,0.0263,9.8261,0.0454,0.005,9.8065,-0.0071,-0.0362,-0.0738,0,0,0.0012,267,-9.9,25.8,-31.3,20.75,-0.03,-0.27,3.1,1009.32,39.52,30.445185,-84.3005,132.72,NaN,,0,25.806452,,9-Jul,10826,2018-04-16 19:52:13:870
0.0072,0.0455,9.7902,0.0454,0.005,9.8065,-0.0071,-0.0362,-0.0738,0.0024,0,0,267,-9.9,25.8,-31.3,20.75,-0.03,-0.27,3.1,1009.33,39.697,30.445185,-84.3005,132.72,NaN,,0,25.806452,,9-Jul,10926,2018-04-16 19:52:13:970
0.0479,0.0479,9.7591,0.045,0.005,9.8065,0.0148,-0.0337,-0.0595,0.0012,0.0012,0.0012,267,-10,25.7,-31.6,20.74,-0.03,-0.26,3.1,1009.33,39.697,30.445185,-84.3005,132.72,NaN,,0,25.806452,,9-Jul,11026,2018-04-16 19:52:14:070
0.0168,0.0072,9.8046,0.0453,0.0047,9.8065,-0.0285,0.0025,-0.002,0.0037,0.0012,0.0024,267,-10.1,25.7,-31.5,20.75,-0.03,-0.26,3.1,1009.31,39.697,30.445185,-84.3005,132.72,NaN,,0,25.806452,,9-Jul,11126,2018-04-16 19:52:14:170
0.0527,-0.0096,9.6992,0.0454,0.0049,9.8065,-0.0047,-0.0049,-0.0403,0.0037,0.0012,0.0024,267,-10,25.7,-31.4,20.75,-0.03,-0.26,3.1,1009.31,44.576,30.445185,-84.3005,132.72,NaN,,0,25.806452,,9-Jul,11226,2018-04-16 19:52:14:270
0.012,0.0024,9.7974,0.045,0.0057,9.8065,0.0268,0.0087,-0.0235,0.0012,0,0.0012,267,-10,25.7,-31.1,20.75,-0.03,-0.26,3.1,1009.31,44.576,30.445185,-84.3005,132.72,NaN,,0,25.806452,,9-Jul,11326,2018-04-16 19:52:14:370
0.0623,-0.0168,9.7686,0.0456,0.0057,9.8065,-0.0504,0.0255,-0.0307,0.0012,-0.0012,0.0024,267,-10.1,25.9,-31.5,20.75,-0.03,-0.26,3.1,1009.32,44.576,30.445185,-84.3005,132.72,NaN,,0,25.806452,,9-Aug,11427,2018-04-16 19:52:14:471
0.0239,0.0024,9.7327,0.0456,0.0057,9.8065,-0.0504,0.0255,-0.0307,0.0012,-0.0012,0.0024,269,-10,25.9,-31.9,20.74,-0.03,-0.27,3.1,1009.33,40.696,30.445185,-84.3005,132.72,NaN,,0,25.806452,,9-Aug,11529,2018-04-16 19:52:14:573
0.0742,0.0072,9.807,0.0441,0.006,9.8066,0.0301,0.0012,4.00E-04,-0.0012,0.0012,0,267,-10,25.9,-31.9,20.74,-0.03,-0.27,3.1,1009.33,40.696,30.445185,-84.3005,132.72,NaN,,0,25.806452,,9-Aug,11626,2018-04-16 19:52:14:670
0.0742,0.0024,9.7662,0.0443,0.0061,9.8065,0.0012,-0.0037,-0.0379,0,0,-0.0024,267,-9.8,25.9,-32.5,20.75,-0.03,-0.26,3.1,1009.33,40.696,30.445185,-84.3005,132.72,NaN,,0,25.806452,,9-Aug,11726,2018-04-16 19:52:14:770
0.0287,0.0144,9.7902,0.0447,0.006,9.8065,-0.0303,-0.0252,-0.0618,0,0,-0.0024,267,-9.9,25.9,-32.2,20.74,-0.04,-0.26,3.1,1009.33,38.225,30.445185,-84.3005,132.72,NaN,,0,25.806452,,9-Aug,11826,2018-04-16 19:52:14:870
0.0455,-0.0096,9.771,0.044,0.005,9.8066,0.0015,-0.0146,-0.0355,0.0012,0,0.0012,267,-10,25.8,-32,20.74,-0.04,-0.26,3.1,1009.33,38.225,30.445185,-84.3005,132.72,NaN,,0,25.806452,,9-Aug,11926,2018-04-16 19:52:14:970
0.0407,-0.0096,9.783,0.044,0.005,9.8066,0.0015,-0.0146,-0.0355,0,0.0012,0.0012,267,-10.1,25.7,-31.9,20.75,-0.03,-0.26,3.1,1009.33,38.225,30.445185,-84.3005,132.72,NaN,,0,25.806452,,9-Aug,12027,2018-04-16 19:52:15:071
0.0383,-0.0168,9.7686,0.0439,0.0039,9.8066,-0.0032,0.0033,-0.0259,0.0012,0,0.0024,267,-10,25.7,-31.8,20.75,-0.02,-0.26,3.1,1009.34,38.225,30.445185,-84.3005,132.72,NaN,,0,25.806452,,9-Aug,12126,2018-04-16 19:52:15:170
0.0335,-0.0096,9.7758,0.0439,0.0032,9.8066,-0.0151,0.0064,-0.0331,-0.0012,0,0.0024,267,-10.1,25.7,-31.7,20.75,-0.02,-0.26,3.1,1009.34,45.3,30.445185,-84.3005,132.72,NaN,,0,25.806452,,9-Aug,12226,2018-04-16 19:52:15:270
0.0383,-0.0096,9.7782,0.0431,0.0025,9.8066,0.0024,-0.0192,-0.0307,-0.0012,0,0.0024,267,-10.1,25.7,-31.7,20.75,-0.02,-0.26,3.1,1009.34,45.3,30.445185,-84.3005,132.72,NaN,,0,25.806452,,9-Aug,12326,2018-04-16 19:52:15:370
0.0359,0.0479,11.5069,0.0428,0.0018,9.8066,-0.0069,0.046,1.7003,0.0012,-0.0024,0.0024,267,-10.2,25.5,-31.7,20.76,-0.01,-0.25,3.1,1009.35,45.3,30.445192,-84.30049,132.42,NaN,,3.12,25.806452,,9-Aug,12426,2018-04-16 19:52:15:470
0.0503,-0.0144,9.8285,0.0428,0.0033,9.8066,0.0314,-0.0536,-0.0954,0.0098,-0.0049,0.0012,267,-10.2,25.6,-31.8,20.76,-0.01,-0.25,3.1,1009.35,44.225,30.445192,-84.30049,132.42,NaN,,3.12,25.806452,,9-Aug,12526,2018-04-16 19:52:15:570
0.0503,0.0192,9.7686,0.0439,0.0052,9.8066,-0.0319,0.0164,-0.002,0,-0.0024,0,267,-10.2,25.6,-31.4,20.77,-0.02,-0.25,3.1,1009.35,44.225,30.445192,-84.30049,132.42,NaN,,3.12,25.806452,,9-Aug,12626,2018-04-16 19:52:15:670
0.0694,0.0192,9.783,0.0439,0.0052,9.8066,-0.0319,0.0164,-0.002,0.0037,-0.0037,0.0012,267,-10.2,25.5,-31.5,20.76,-0.03,-0.26,3.1,1009.34,44.225,30.445192,-84.30049,132.42,NaN,,3.12,25.806452,,9-Aug,12726,2018-04-16 19:52:15:770
0.0287,0.0335,9.7591,0.0439,0.0059,9.8066,0.0255,-0.0012,-0.0211,0,0,0,267,-10.1,25.4,-31.6,21.5,-0.03,-0.26,3.1,1009.34,40.236,30.445192,-84.30049,132.42,NaN,,3.12,25.806452,,9-Aug,12826,2018-04-16 19:52:15:870
0.0383,0.0455,9.7734,0.0446,0.0073,9.8065,0.0224,0.0167,-0.0355,-0.0024,0,0.0012,267,-10.3,25.3,-31.9,21.49,-0.04,-0.26,3.1,1009.35,40.236,30.445192,-84.30049,132.42,NaN,,3.12,25.806452,,9-Aug,12926,2018-04-16 19:52:15:970
0,0.0479,9.7902,0.0451,0.0081,9.8065,-0.0451,0.0398,-0.0164,-0.0024,0,0.0012,267,-10.3,25.3,-31.9,21.49,-0.04,-0.26,3.1,1009.35,40.236,30.445192,-84.30049,132.42,NaN,,3.12,25.806452,,9-Aug,13026,2018-04-16 19:52:16:070
0.0718,0.0431,9.8189,0.0446,0.0088,9.8065,0.0272,0.0295,-0.0259,0,0,0.0012,267,-10.3,25.2,-31.9,21.49,-0.05,-0.26,3.1,1009.35,40.236,30.445192,-84.30049,132.42,NaN,,3.12,25.806452,,9-Aug,13126,2018-04-16 19:52:16:170
0.0383,0.0239,9.7926,0.0448,0.0096,9.8065,0.027,-0.024,-0.0571,0.0012,0.0012,0.0012,267,-10.3,25.1,-32,21.49,-0.05,-0.26,3.1,1009.36,40.881,30.445192,-84.30049,132.42,NaN,,3.12,25.806452,,9-Aug,13226,2018-04-16 19:52:16:270
0.0503,-0.0168,9.7591,0.0448,0.0096,9.8065,0.027,-0.024,-0.0571,0,0.0012,0.0024,267,-10.3,25.2,-31.9,21.49,-0.06,-0.26,3.1,1009.36,40.881,30.445192,-84.30049,132.42,NaN,,3.12,25.806452,,9-Aug,13326,2018-04-16 19:52:16:370
0.0742,0.0335,9.7806,0.0453,0.0096,9.8065,-0.0285,0.0287,-0.0235,0.0037,0.0012,0,267,-10.3,25.1,-31.8,21.49,-0.06,-0.26,3.1,1009.36,40.881,30.4452,-84.30048,132.82,NaN,,3.55,25.806452,,9-Sep,13426,2018-04-16 19:52:16:470
0.0072,0.0072,9.7662,0.046,0.0103,9.8065,0.0162,-0.0151,-0.0331,0.0037,0.0012,0,267,-10.3,25.1,-31.7,21.48,-0.06,-0.27,3.1,1009.36,39.118,30.4452,-84.30048,132.82,NaN,,3.55,25.806452,,9-Sep,13526,2018-04-16 19:52:16:570
0.0718,0.0431,9.7878,0.0459,0.0103,9.8065,0.026,0.0328,-0.0187,0.0012,0.0012,0,267,-10.2,25.1,-32,21.48,-0.06,-0.27,3.1,1009.34,39.118,30.4452,-84.30048,132.82,NaN,,3.55,25.806452,,9-Sep,13627,2018-04-16 19:52:16:671
0.0455,0.0383,9.7734,0.0464,0.0106,9.8065,-9.00E-04,-0.0082,-0.0499,0.0012,0,0,267,-10.2,25,-32,21.48,-0.06,-0.27,3.1,1009.34,39.118,30.4452,-84.30048,132.82,NaN,,3.55,25.806452,,9-Sep,13726,2018-04-16 19:52:16:770
0.0742,0.0168,9.8117,0.0464,0.0106,9.8065,-9.00E-04,-0.0082,-0.0499,0.0012,0.0012,0.0012,267,-10.2,25,-32,21.48,-0.06,-0.27,3.1,1009.34,40.149,30.4452,-84.30048,132.82,NaN,,3.55,25.806452,,9-Sep,13826,2018-04-16 19:52:16:870
0.0551,-0.0072,9.7615,0.0469,0.0107,9.8065,-0.023,-0.0035,-0.0235,0.0012,-0.0012,0.0012,267,-10.3,24.9,-31.8,21.47,-0.06,-0.27,3.1,1009.34,40.149,30.4452,-84.30048,132.82,NaN,,3.55,25.806452,,9-Sep,13926,2018-04-16 19:52:16:970
0.0263,-0.0048,9.771,0.047,0.0106,9.8065,0.0153,-0.0178,-0.0331,0.0012,0,0,267,-10.5,24.9,-31.9,21.47,-0.06,-0.27,3.1,1009.35,40.149,30.4452,-84.30048,132.82,NaN,,3.55,25.806452,,9-Sep,14026,2018-04-16 19:52:17:070
0.0455,0.0096,9.7423,0.047,0.0099,9.8065,-0.0016,-3.00E-04,-0.0642,0.0012,0,0,267,-10.6,24.9,-31.8,21.47,-0.06,-0.27,3.1,1009.35,37.659,30.4452,-84.30048,132.82,NaN,,3.55,25.806452,,9-Sep,14126,2018-04-16 19:52:17:170
0.0215,-0.012,9.7686,0.0468,0.0094,9.8065,0.001,-0.0046,-0.0379,0.0012,-0.0012,0.0012,267,-10.6,24.7,-31.9,23.43,-0.06,-0.27,3.1,1009.32,37.659,30.4452,-84.30048,132.82,NaN,,3.55,25.806452,,9-Sep,14226,2018-04-16 19:52:17:270
0.067,0.0215,9.7591,0.0468,0.0097,9.8065,0.0059,-0.0073,-0.0068,0.0024,-0.0012,0.0012,267,-10.7,24.7,-31.7,23.43,-0.06,-0.27,3.1,1009.32,37.659,30.4452,-84.30048,132.82,NaN,,3.55,25.806452,,9-Sep,14326,2018-04-16 19:52:17:370
0.0551,0.0215,9.7639,0.0468,0.0097,9.8065,0.0059,-0.0073,-0.0068,0,0,0.0012,267,-10.8,24.7,-31.7,23.43,-0.06,-0.27,3.1,1009.32,37.659,30.445206,-84.30047,132.72,NaN,,3.53,25.806452,46.61,13-Nov,14426,2018-04-16 19:52:17:470
0.0742,0.0144,9.7662,0.0468,0.0098,9.8065,0.025,0.0046,-0.0403,0.0012,0,0.0012,267,-10.8,24.7,-31.8,23.43,-0.06,-0.27,3.1,1009.32,39.16,30.445206,-84.30047,132.72,NaN,,3.53,25.806452,46.61,13-Nov,14526,2018-04-16 19:52:17:570
0.0263,-0.0024,9.7615,0.0475,0.0105,9.8065,-0.0212,-0.0129,-0.0451,-0.0024,-0.0012,0.0012,267,-10.8,24.7,-31.8,23.43,-0.06,-0.27,3.1,1009.32,39.16,30.445206,-84.30047,132.72,NaN,,3.53,25.806452,46.61,13-Nov,14626,2018-04-16 19:52:17:670
0.0599,-0.0024,9.771,0.0475,0.0105,9.8065,0.0123,-0.0153,-0.0546,-0.0024,-0.0012,0.0012,267,-10.6,24.6,-31.7,23.42,-0.06,-0.28,3.1,1009.32,39.16,30.445206,-84.30047,132.72,NaN,,3.53,25.806452,46.61,13-Nov,14726,2018-04-16 19:52:17:770
0.0455,0,9.7806,0.0477,0.0098,9.8065,0.0097,-0.0026,-0.0331,0.0012,-0.0024,0,267,-10.4,24.6,-31.6,23.42,-0.06,-0.28,3.1,1009.31,38.169,30.445206,-84.30047,132.72,NaN,,3.53,25.806452,46.61,13-Nov,14826,2018-04-16 19:52:17:870
0.0359,-0.0144,9.7591,0.0477,0.0094,9.8065,0.0266,0.005,-0.0235,0.0024,-0.0024,0.0012,267,-10.6,24.5,-31.7,23.42,-0.06,-0.28,3.1,1009.31,38.169,30.445206,-84.30047,132.72,NaN,,3.53,25.806452,46.61,13-Nov,14927,2018-04-16 19:52:17:971
0.0359,-0.0144,9.771,0.0477,0.0094,9.8065,0.0266,0.005,-0.0235,0.0012,-0.0012,0.0012,267,-10.7,24.4,-31.3,24.3,-0.05,-0.28,3.1,1009.31,38.169,30.445206,-84.30047,132.72,NaN,,3.53,25.806452,46.61,13-Nov,15026,2018-04-16 19:52:18:070
0.0455,0.0263,9.7758,0.0476,0.0091,9.8065,0.0147,5.00E-04,-0.0355,0.0024,0,0,267,-10.8,24.4,-31.3,24.3,-0.05,-0.28,3.1,1009.31,37.341,30.445206,-84.30047,132.72,NaN,,3.53,25.806452,46.61,13-Nov,15126,2018-04-16 19:52:18:170
0.0503,0.0287,9.7615,0.0476,0.0091,9.8065,3.00E-04,-0.0091,-0.0331,0,0,0.0012,267,-10.7,24.5,-31.4,23.44,-0.05,-0.28,3.1,1009.32,37.341,30.445206,-84.30047,132.72,NaN,,3.53,25.806452,46.61,13-Nov,15226,2018-04-16 19:52:18:270
0.0144,-0.0072,9.7806,0.0476,0.0091,9.8065,0.0027,0.0172,-0.0379,0,0,0.0012,267,-10.7,24.5,-31.4,23.44,-0.05,-0.28,3.1,1009.32,37.341,30.445206,-84.30047,132.72,NaN,,3.53,25.806452,46.61,13-Nov,15326,2018-04-16 19:52:18:370
0.0503,-0.0024,9.7782,0.0476,0.0091,9.8065,0.0027,-0.0115,-0.0283,0.0012,0.0012,0.0012,267,-10.7,24.5,-31.4,23.44,-0.05,-0.28,3.1,1009.33,40.026,30.445211,-84.30046,132.49,NaN,,3.41,25.806452,45.79,13-Oct,15426,2018-04-16 19:52:18:470
0.0479,0.0048,9.7662,0.0476,0.009,9.8065,-0.0189,-0.0162,-0.0403,0.0012,0.0012,0.0024,267,-10.7,24.4,-31.2,24.3,-0.05,-0.28,3.1,1009.33,40.026,30.445211,-84.30046,132.49,NaN,,3.41,25.806452,45.79,13-Oct,15526,2018-04-16 19:52:18:570
0.0383,0.0024,9.7399,0.0476,0.009,9.8065,-0.0189,-0.0162,-0.0403,0.0012,0.0012,0.0024,267,-10.8,24.4,-31.3,24.3,-0.05,-0.28,3.1,1009.33,40.026,30.445211,-84.30046,132.49,NaN,,3.41,25.806452,45.79,13-Oct,15627,2018-04-16 19:52:18:671
0.0694,0.012,9.7639,0.0469,0.0082,9.8065,0.0273,0.0133,-0.0355,0.0012,0.0012,-0.0012,267,-10.7,24.4,-31.4,24.31,-0.05,-0.27,3.1,1009.33,39.498,30.445211,-84.30046,132.49,NaN,,3.41,25.806452,45.79,13-Oct,15726,2018-04-16 19:52:18:770
0.0287,0.0072,9.7686,0.0475,0.0082,9.8065,-0.0187,-0.001,-0.0379,0.0012,0,0.0012,267,-10.7,24.5,-31.4,24.31,-0.05,-0.27,3.1,1009.34,39.498,30.445211,-84.30046,132.49,NaN,,3.41,25.806452,45.79,13-Oct,15826,2018-04-16 19:52:18:870
0.0407,0.0168,9.783,0.0471,0.0079,9.8065,-0.0112,0.0017,-0.0475,-0.0012,-0.0012,0.0024,267,-10.7,24.5,-31.4,23.44,-0.05,-0.28,3.1,1009.34,39.498,30.445211,-84.30046,132.49,NaN,,3.41,25.806452,45.79,13-Oct,15926,2018-04-16 19:52:18:970
0.0623,0.012,9.7662,0.0471,0.0079,9.8065,-0.0016,-0.0055,-0.0283,0,0,0,267,-10.8,24.4,-31.4,24.31,-0.05,-0.28,3.1,1009.34,39.498,30.445211,-84.30046,132.49,NaN,,3.41,25.806452,45.79,13-Oct,16026,2018-04-16 19:52:19:070
0.0335,0.0239,9.7686,0.0471,0.0079,9.8065,-0.0016,-0.0127,-0.0283,0.0012,0.0012,0.0024,267,-10.9,24.3,-31.4,24.31,-0.05,-0.28,3.1,1009.34,39.217,30.445211,-84.30046,132.49,NaN,,3.41,25.806452,45.79,13-Oct,16126,2018-04-16 19:52:19:170
0.0742,0.0263,9.8022,0.0471,0.0079,9.8065,-0.0016,-0.0127,-0.0283,0.0012,0.0012,0.0024,267,-10.9,24.3,-31.4,24.31,-0.05,-0.28,3.1,1009.34,39.217,30.445211,-84.30046,132.49,NaN,,3.41,25.806452,45.79,13-Oct,16226,2018-04-16 19:52:19:270
0.0407,-0.0096,9.771,0.0471,0.0079,9.8065,0.0032,-0.0055,-0.0307,-0.0024,0,0.0024,267,-10.9,24.3,-31.2,24.31,-0.05,-0.28,3.1,1009.34,39.217,30.445211,-84.30046,132.49,NaN,,3.41,25.806452,45.79,13-Oct,16326,2018-04-16 19:52:19:370
0.0144,0.0096,9.7926,0.0466,0.0076,9.8065,-0.0179,0.0044,-0.0475,0.0012,0,0.0012,267,-10.8,24.3,-31.2,24.31,-0.05,-0.28,3.1,1009.33,37.439,30.445211,-84.30046,132.49,NaN,,3.41,25.806452,45.79,13-Dec,16426,2018-04-16 19:52:19:470
0.0383,0.0024,9.7734,0.0466,0.0076,9.8065,0.0181,0.002,-0.0307,0,-0.0012,0.0012,267,-10.8,24.2,-31.3,24.31,-0.04,-0.27,3.1,1009.33,37.439,30.445211,-84.30046,132.49,NaN,,3.41,25.806452,45.79,13-Dec,16526,2018-04-16 19:52:19:570
0.0646,0.0383,9.7423,0.0466,0.0075,9.8065,0.0181,0.0308,-0.0642,0,-0.0012,0.0012,267,-10.8,24.1,-31.2,24.31,-0.04,-0.27,3.1,1009.34,37.439,30.445211,-84.30046,132.49,NaN,,3.41,25.806452,45.79,13-Dec,16626,2018-04-16 19:52:19:670
0.0311,0,9.7854,0.0466,0.0075,9.8065,0.0013,0.0117,-0.0235,-0.0012,0.0024,0.0037,267,-10.9,24.1,-31.2,24.31,-0.04,-0.27,3.1,1009.34,40.238,30.445211,-84.30046,132.49,NaN,,3.41,25.806452,45.79,13-Dec,16726,2018-04-16 19:52:19:770
0.0551,0.0144,9.7447,0.0466,0.0075,9.8065,0.0013,0.0117,-0.0235,0,-0.0012,0.0024,267,-11.1,24.1,-31.1,24.31,-0.04,-0.27,3.1,1009.34,40.238,30.445211,-84.30046,132.49,NaN,,3.41,25.806452,45.79,13-Dec,16826,2018-04-16 19:52:19:870
0.0192,-0.0048,9.7758,0.0457,0.007,9.8065,0.0118,-0.007,-0.0547,-0.0012,0,0.0012,267,-11.1,24.1,-31.2,24.32,-0.04,-0.27,3.1,1009.34,40.238,30.445211,-84.30046,132.49,NaN,,3.41,25.806452,45.79,13-Dec,16926,2018-04-16 19:52:19:970
0.0479,0,9.7854,0.0449,0.0062,9.8065,0.003,-0.0038,-0.0547,0.0012,0.0012,0.0012,267,-11.1,24.1,-31.2,24.32,-0.04,-0.27,3.1,1009.34,40.238,30.445211,-84.30046,132.49,NaN,,3.41,25.806452,45.79,13-Dec,17026,2018-04-16 19:52:20:070
0.0287,-0.0144,9.7591,0.0445,0.0052,9.8065,-0.023,-0.01,-0.0451,0.0012,0.0012,0,267,-11,24,-31.2,24.33,-0.04,-0.26,3.1,1009.33,39.219,30.445211,-84.30046,132.49,NaN,,3.41,25.806452,45.79,13-Dec,17126,2018-04-16 19:52:20:170
0.0527,-0.012,9.7591,0.0434,0.0041,9.8066,-0.0027,0.015,-0.0475,0.0012,0.0012,0,267,-11,24.1,-31.4,24.33,-0.03,-0.26,3.1,1009.33,39.219,30.445211,-84.30046,132.49,NaN,,3.41,25.806452,45.79,13-Dec,17226,2018-04-16 19:52:20:270
0.0311,0.0144,9.7878,0.0429,0.0036,9.8066,-0.0165,-0.0108,-0.0762,0.0024,-0.0012,0,267,-11,24.1,-31.6,24.34,-0.02,-0.25,3.1,1009.33,39.219,30.445211,-84.30046,132.49,NaN,,3.41,25.806452,45.79,13-Dec,17326,2018-04-16 19:52:20:370
0.0742,-0.0024,9.9003,0.0429,0.0036,9.8066,-0.0165,-0.0108,-0.0762,0,-0.0012,0,267,-11,24.1,-31.6,24.34,-0.02,-0.25,3.1,1009.34,40.055,30.445225,-84.30045,130.06,NaN,,1.6,25.806452,55.27,13-Nov,17426,2018-04-16 19:52:20:470
0.0479,-0.0144,9.7543,0.0427,0.0036,9.8066,-0.0212,-0.0156,-0.0379,0.0024,-0.0024,0,267,-11.1,24.1,-31.4,24.35,-0.02,-0.25,3.1,1009.33,40.055,30.445225,-84.30045,130.06,NaN,,1.6,25.806452,55.27,13-Nov,17526,2018-04-16 19:52:20:570
0.0144,0.0072,9.7854,0.0422,0.0033,9.8066,0.0057,-0.0368,-0.0427,0,0.0012,-0.0012,267,-11.1,24.1,-31.2,24.35,-0.02,-0.25,3.1,1009.33,40.055,30.445225,-84.30045,130.06,NaN,,1.6,25.806452,55.27,13-Nov,17626,2018-04-16 19:52:20:670
0.0646,0.0024,9.7806,0.0421,0.0027,9.8066,0.0034,-4.00E-04,-0.0283,0.0012,0.0012,0,267,-11.1,24,-31.5,24.35,-0.02,-0.25,3.1,1009.31,38.495,30.445225,-84.30045,130.06,NaN,,1.6,25.806452,55.27,13-Nov,17726,2018-04-16 19:52:20:770
0.0287,0.0096,9.7878,0.0423,0.0023,9.8066,-0.0135,0.0072,-0.0188,0.0012,0.0012,0,267,-11,24,-31.7,24.34,-0.02,-0.25,3.1,1009.31,38.495,30.445225,-84.30045,130.06,NaN,,1.6,25.806452,55.27,13-Nov,17826,2018-04-16 19:52:20:870
0.0646,-0.0215,9.7758,0.0418,0.002,9.8066,0.0276,0.0124,-0.0355,0.0012,-0.0012,0.0012,267,-10.8,24.1,-31.5,24.36,-0.01,-0.24,3.1,1009.32,38.495,30.445225,-84.30045,130.06,NaN,,1.6,25.806452,55.27,13-Nov,17927,2018-04-16 19:52:20:971
0.0192,0.0024,9.771,0.0419,0.0019,9.8066,0.0227,0.0292,-0.0786,-0.0012,0.0012,0.0012,267,-10.9,24,-31.3,24.36,-0.01,-0.24,3.1,1009.32,39.317,30.445225,-84.30045,130.06,NaN,,1.6,25.806452,55.27,13-Nov,18026,2018-04-16 19:52:21:070
0.0742,0.0263,9.886,0.0419,0.0019,9.8066,0.0227,0.0292,-0.0786,0.0024,0,-0.0012,267,-10.9,24,-31.3,24.36,-0.01,-0.24,3.1,1009.32,39.317,30.445225,-84.30045,130.06,NaN,,1.6,25.806452,55.27,13-Nov,18126,2018-04-16 19:52:21:170
0.0359,-0.0024,9.7495,0.0424,0.0024,9.8066,-0.0065,-0.0048,-0.0571,0,0.0012,0.0012,267,-11.1,23.9,-31.2,24.36,-0.01,-0.24,3.1,1009.32,39.317,30.445225,-84.30045,130.06,NaN,,1.6,25.806452,55.27,13-Nov,18226,2018-04-16 19:52:21:270
0.0599,0.0048,9.7567,0.0424,0.0024,9.8066,-0.0232,-0.0072,-0.0331,0,0.0012,0.0012,267,-11.2,24,-31.2,24.35,-0.01,-0.25,3.1,1009.32,37.72,30.445225,-84.30045,130.06,NaN,,1.6,25.806452,55.27,13-Nov,18326,2018-04-16 19:52:21:370
0.0455,0.0287,9.7878,0.0424,0.0024,9.8066,7.00E-04,0.0024,-0.0762,0.0037,0.0012,0,267,-11.2,24,-31.4,24.35,-0.01,-0.25,3.1,1009.32,37.72,30.445225,-84.30045,130.06,NaN,,1.6,25.806452,55.27,13-Dec,18426,2018-04-16 19:52:21:470
0.0455,0.0287,9.7878,0.0424,0.0024,9.8066,-0.0089,-0.0096,-0.0643,0.0024,0,0.0024,267,-11.1,24.1,-31.4,24.35,-0.01,-0.25,3.1,1009.32,37.72,30.445225,-84.30045,130.06,NaN,,1.6,25.806452,55.27,13-Dec,18527,2018-04-16 19:52:21:571
0.0287,-0.0024,9.7806,0.0424,0.0024,9.8066,-0.0089,-0.0096,-0.0643,0.0024,0,0.0024,267,-11.1,24.1,-31.4,24.35,-0.01,-0.25,3.1,1009.32,37.72,30.445225,-84.30045,130.06,NaN,,1.6,25.806452,55.27,13-Dec,18626,2018-04-16 19:52:21:670
0.0383,0.012,9.7782,0.042,0.0018,9.8066,0.0227,-0.0114,-0.0379,0.0037,0,0.0024,267,-11.1,24,-31.3,24.36,-0.01,-0.25,3.1,1009.34,38.496,30.445225,-84.30045,130.06,NaN,,1.6,25.806452,55.27,13-Dec,18726,2018-04-16 19:52:21:770
0.0599,-0.0024,9.7782,0.0421,0.0018,9.8066,-0.0277,-0.0113,-0.0379,-0.0024,0.0024,0.0012,267,-11,24.2,-31.3,24.36,-0.01,-0.25,3.1,1009.34,38.496,30.445225,-84.30045,130.06,NaN,,1.6,25.806452,55.27,13-Dec,18826,2018-04-16 19:52:21:870
0.0311,0.0311,9.7423,0.0421,0.0015,9.8066,-0.0086,-0.0015,-0.0451,0.0024,0,0,267,-10.9,24.1,-31.1,24.36,-0.01,-0.25,3.1,1009.34,38.496,30.445225,-84.30045,130.06,NaN,,1.6,25.806452,55.27,13-Dec,18926,2018-04-16 19:52:21:970
0.067,-0.0048,9.7639,0.0421,0.0015,9.8066,0.0249,-0.0063,-0.0427,0.0037,-0.0012,0,267,-11.1,24,-31.3,24.36,-0.01,-0.25,3.1,1009.34,40.717,30.445225,-84.30045,130.06,NaN,,1.6,25.806452,55.27,13-Dec,19026,2018-04-16 19:52:22:070
0.0599,0.0192,9.7519,0.0424,0.0015,9.8066,0.0199,-0.0087,-0.0379,0,0.0012,0.0012,267,-11.2,23.8,-31.3,24.35,-0.01,-0.25,3.1,1009.34,40.717,30.445225,-84.30045,130.06,NaN,,1.6,25.806452,55.27,13-Dec,19126,2018-04-16 19:52:22:170
0.0503,0.0072,9.7686,0.0433,0.001,9.8066,-0.017,-0.001,-0.0355,0.0024,0.0012,0.0012,269,-11.2,23.9,-31.5,24.35,-0.01,-0.25,3.1,1009.35,40.717,30.445225,-84.30045,130.06,NaN,,1.6,25.806452,55.27,13-Dec,19226,2018-04-16 19:52:22:270
0.0407,0,9.7471,0.0433,0.001,9.8066,-0.017,-0.001,-0.0355,0.0024,0.0012,0.0012,269,-11.2,23.9,-31.5,24.35,-0.01,-0.25,3.1,1009.35,43.57,30.445225,-84.30045,130.06,NaN,,1.6,25.806452,55.27,13-Dec,19326,2018-04-16 19:52:22:370
0.0479,0.0024,9.7567,0.0436,0.0012,9.8066,0.0139,0.0395,-0.0068,0.0024,-0.0012,-0.0012,267,-11.2,24,-31.6,24.34,-0.01,-0.25,3.1,1009.34,43.57,30.445225,-84.30045,130.06,NaN,,1.6,25.806452,55.27,13-Sep,19426,2018-04-16 19:52:22:470
0.0431,-0.0048,9.7399,0.0436,0.002,9.8066,-5.00E-04,-0.0068,-0.0666,0.0012,0.0012,0,267,-11.2,23.9,-31.5,24.34,-0.01,-0.26,3.1,1009.34,43.57,30.445225,-84.30045,130.06,NaN,,1.6,25.806452,55.27,13-Sep,19526,2018-04-16 19:52:22:570
0.0287,0.0287,9.7184,0.0439,0.0025,9.8066,0.0135,0.0071,0.0626,0.0012,-0.0024,-0.0012,269,-11.1,23.9,-31.8,24.33,-0.01,-0.26,3.1,1009.34,40.345,30.445225,-84.30045,130.06,NaN,,1.6,25.806452,55.27,13-Sep,19626,2018-04-16 19:52:22:670
0.0718,0.012,9.8596,0.0443,0.0032,9.8066,-0.0203,-0.0176,-0.0092,0.0012,0.0012,0.0012,267,-11.2,24,-31.7,24.33,-0.02,-0.26,3.1,1009.34,40.345,30.445225,-84.30045,130.06,NaN,,1.6,25.806452,55.27,13-Sep,19726,2018-04-16 19:52:22:770
0.0551,-0.0263,9.7232,0.0437,0.004,9.8066,0.0114,-0.0304,-0.0834,0.0024,0.0012,0,267,-11.2,24,-31.7,24.33,-0.02,-0.26,3.1,1009.35,40.345,30.445225,-84.30045,130.06,NaN,,1.6,25.806452,55.27,13-Sep,19826,2018-04-16 19:52:22:870
0.0527,0,9.7639,0.0437,0.004,9.8066,0.0114,-0.0304,-0.0834,0.0024,0.0012,0,267,-11.2,24,-31.7,24.33,-0.02,-0.26,3.1,1009.35,40.345,30.445225,-84.30045,130.06,NaN,,1.6,25.806452,55.27,13-Sep,19926,2018-04-16 19:52:22:970
0.0431,0.0024,9.7255,0.0431,0.0048,9.8066,-0.0048,-0.0072,-0.0738,0.0012,0,0.0012,267,-10.8,24,-32,24.33,-0.02,-0.26,3.1,1009.35,43.876,30.445225,-84.30045,130.06,NaN,,1.6,25.806452,55.27,13-Sep,20026,2018-04-16 19:52:23:070
0.0742,-0.0024,9.6896,0.0436,0.0055,9.8066,-0.0269,-0.015,-0.0523,0.0037,0,0.0037,267,-10.3,24,-33,22.3,-0.03,-0.25,3.1,1009.36,43.876,30.445225,-84.30045,130.06,NaN,,1.6,25.806452,55.27,13-Sep,20126,2018-04-16 19:52:23:170
0.0287,0.0168,9.716,0.0439,0.0055,9.8066,0.0016,-0.0079,-0.0906,0.0012,0,0.0012,267,-10.1,24,-33.2,22.3,-0.03,-0.25,3.1,1009.36,43.876,30.445225,-84.30045,130.06,NaN,,1.6,25.806452,55.27,13-Sep,20226,2018-04-16 19:52:23:270
0.0503,0.0479,9.7854,0.044,0.0055,9.8066,0.0063,0.0424,-0.0211,0,0,0,267,-10.5,24,-32.2,22.31,-0.03,-0.26,3.1,1009.36,40.596,30.445225,-84.30045,130.06,NaN,,1.6,25.806452,55.27,13-Sep,20326,2018-04-16 19:52:23:370
0.0048,0.0359,9.7806,0.0439,0.0059,9.8066,0.0112,0.0372,-0.1433,0.0024,0.0012,0.0012,267,-11,24,-31.3,22.31,-0.03,-0.26,3.1,1009.36,40.596,30.445225,-84.30045,130.06,NaN,,1.6,25.806452,55.27,13-Nov,20426,2018-04-16 19:52:23:470
0.0503,0.0335,9.7591,0.0439,0.0059,9.8066,0.0112,0.0372,-0.1433,0.0024,0.0012,0.0012,267,-11.1,24,-31.2,24.33,-0.03,-0.26,3.1,1009.37,40.596,30.445225,-84.30045,130.06,NaN,,1.6,25.806452,55.27,13-Nov,20526,2018-04-16 19:52:23:570
0.0742,0.0072,9.7471,0.044,0.0064,9.8065,-0.0105,-0.0207,-0.1073,0.0024,0,0,267,-11.1,24,-31.4,24.33,-0.04,-0.26,3.1,1009.37,42.156,30.445225,-84.30045,130.06,NaN,,1.6,25.806452,55.27,13-Nov,20626,2018-04-16 19:52:23:670
0.0287,-0.0096,9.7639,0.044,0.0064,9.8065,-9.00E-04,-0.0231,-0.0427,0.0012,0.0012,0,267,-11.2,24.1,-31.5,24.33,-0.04,-0.26,3.1,1009.35,42.156,30.445225,-84.30045,130.06,NaN,,1.6,25.806452,55.27,13-Nov,20726,2018-04-16 19:52:23:770
0.0455,-0.0144,9.7639,0.0437,0.005,9.8066,0.0018,-0.0193,-0.0427,0.0012,0.0012,-0.0012,267,-11.2,24.1,-31.5,24.33,-0.04,-0.26,3.1,1009.35,42.156,30.445225,-84.30045,130.06,NaN,,1.6,25.806452,55.27,13-Nov,20826,2018-04-16 19:52:23:870
0.0263,-0.0144,9.771,0.0435,0.0044,9.8066,-0.0147,-0.0235,-0.0307,0,0,0,267,-11.1,24.1,-31.8,24.33,-0.03,-0.26,3.1,1009.35,42.156,30.445225,-84.30045,130.06,NaN,,1.6,25.806452,55.27,13-Nov,20926,2018-04-16 19:52:23:970
0.0694,-0.0048,9.7734,0.0432,0.0039,9.8066,-0.0073,-0.0063,-0.0451,0,0,0,267,-11,24.1,-31.7,24.33,-0.03,-0.25,3.1,1009.35,39.246,30.445225,-84.30045,130.06,NaN,,1.6,25.806452,55.27,13-Nov,21026,2018-04-16 19:52:24:070
0.0383,0.0096,9.7615,0.0432,0.0039,9.8066,-0.0073,-0.0063,-0.0451,0,0,0,267,-10.9,24.1,-31.5,24.34,-0.02,-0.25,3.1,1009.35,39.246,30.445225,-84.30045,130.06,NaN,,1.6,25.806452,55.27,13-Nov,21126,2018-04-16 19:52:24:170
0.0527,0.0096,9.7567,0.0431,0.0039,9.8066,0.0216,-0.0039,-0.0403,0.0024,-0.0024,0.0024,267,-10.9,24,-31.3,24.34,-0.02,-0.25,3.1,1009.35,39.246,30.445225,-84.30045,130.06,NaN,,1.6,25.806452,55.27,13-Nov,21226,2018-04-16 19:52:24:270
0.0455,-0.0239,9.7615,0.043,0.0037,9.8066,0.0025,-0.0276,-0.0451,0.0012,0,0,267,-11,24.1,-31.1,24.34,-0.02,-0.25,3.1,1009.35,39.94,30.445225,-84.30045,130.06,NaN,,1.6,25.806452,55.27,13-Nov,21329,2018-04-16 19:52:24:373
0.0407,0.0024,9.7543,0.0427,0.0029,9.8066,4.00E-04,0.0042,-0.0451,0,0,0.0012,267,-11,24.1,-31.1,24.34,-0.02,-0.25,3.1,1009.34,39.94,30.445225,-84.30045,130.06,NaN,,1.6,25.806452,55.27,13-Sep,21426,2018-04-16 19:52:24:470
0.0335,-0.0048,9.7567,0.0427,0.0029,9.8066,-0.026,-0.0125,-0.0523,0,0,0.0024,267,-11.1,24.1,-31.2,24.35,-0.02,-0.25,3.1,1009.35,39.94,30.445225,-84.30045,130.06,NaN,,1.6,25.806452,55.27,13-Sep,21526,2018-04-16 19:52:24:570
0.0287,-0.0215,9.7734,0.0428,0.0027,9.8066,-0.014,-0.0243,-0.0331,0.0012,-0.0012,0,267,-11.2,24.1,-31.3,24.35,-0.02,-0.25,3.1,1009.35,38.651,30.445225,-84.30045,130.06,NaN,,1.6,25.806452,55.27,13-Sep,21626,2018-04-16 19:52:24:670
0.0694,0.0215,9.8046,0.0428,0.0027,9.8066,-0.014,-0.0243,-0.0331,0.0012,-0.0012,0,267,-11.2,24,-31.3,24.35,-0.02,-0.25,3.1,1009.36,38.651,30.445225,-84.30045,130.06,NaN,,1.6,25.806452,55.27,13-Sep,21727,2018-04-16 19:52:24:771
0.0215,0.0024,9.7806,0.0429,0.0023,9.8066,-0.019,-0.0167,-0.0451,0.0012,-0.0012,0.0012,267,-11.2,24.1,-31.1,24.35,-0.01,-0.25,3.1,1009.36,38.651,30.445225,-84.30045,130.06,NaN,,1.6,25.806452,55.27,13-Sep,21826,2018-04-16 19:52:24:870
0.0551,0,9.7806,0.0427,0.0023,9.8066,0.0315,0.0073,-0.0355,0,0.0012,0.0012,267,-11.1,24.2,-31.1,24.35,-0.01,-0.25,3.1,1009.36,38.302,30.445225,-84.30045,130.06,NaN,,1.6,25.806452,55.27,13-Sep,21926,2018-04-16 19:52:24:970
0.0359,0.0048,9.8261,0.0434,0.0026,9.8066,-0.0074,0.0022,0.0196,0,-0.0012,0.0012,267,-11.1,24.2,-31.1,24.35,-0.01,-0.25,3.1,1009.36,38.302,30.445225,-84.30045,130.06,NaN,,1.6,25.806452,55.27,13-Sep,22026,2018-04-16 19:52:25:070
0.0694,0.0048,9.7471,0.0439,0.0028,9.8066,0.004,-4.00E-04,-0.0954,0,0,0.0024,267,-10.9,24.1,-31,24.34,-0.02,-0.25,3.1,1009.37,38.302,30.445225,-84.30045,130.06,NaN,,1.6,25.806452,55.27,13-Sep,22126,2018-04-16 19:52:25:170
0.0144,0.0335,9.783,0.0439,0.0028,9.8066,0.004,-4.00E-04,-0.0954,0,0,0.0024,267,-10.9,24,-31.3,24.34,-0.02,-0.26,3.1,1009.37,46.245,30.445225,-84.30045,130.06,NaN,,1.6,25.806452,55.27,13-Sep,22226,2018-04-16 19:52:25:270
0.0694,0.012,9.7399,0.0433,0.0034,9.8066,0.0142,-0.0298,-0.0427,0.0012,0.0012,0.0012,267,-11,24,-31.7,24.33,-0.02,-0.25,3.1,1009.38,46.245,30.445225,-84.30045,130.06,NaN,,1.6,25.806452,55.27,13-Sep,22326,2018-04-16 19:52:25:370
0.0192,0.0048,9.704,0.044,0.0039,9.8066,-0.0249,9.00E-04,-0.1026,0.0024,0,0.0012,269,-11.1,24,-31.7,24.33,-0.02,-0.25,3.1,1009.38,46.245,30.445225,-84.30042,130.21,NaN,,2.09,38.709675,130.6,12-Sep,22426,2018-04-16 19:52:25:470
0.0311,0.0144,9.7734,0.0448,0.0051,9.8065,0.0079,-0.0218,-0.0882,-0.0024,0,0.0024,269,-11.2,24.2,-31.8,24.32,-0.03,-0.26,3.1,1009.39,46.245,30.445225,-84.30042,130.21,NaN,,2.09,38.709675,130.6,12-Sep,22526,2018-04-16 19:52:25:570
0.0742,0.0407,9.8261,0.0447,0.0051,9.8065,0.0151,0.0164,-0.1026,0,0,0.0012,267,-10.9,24.2,-31.7,24.32,-0.03,-0.26,3.1,1009.39,47.213,30.445225,-84.30042,130.21,NaN,,2.09,38.709675,130.6,12-Sep,22626,2018-04-16 19:52:25:670
0.0144,0.0072,9.7519,0.0448,0.0054,9.8065,-0.0305,0.0018,-0.0547,0.0012,0.0012,0,267,-10.9,24.1,-31.6,24.32,-0.03,-0.26,3.1,1009.38,47.213,30.445225,-84.30042,130.21,NaN,,2.09,38.709675,130.6,12-Sep,22726,2018-04-16 19:52:25:770
0.0694,-0.0048,9.7399,0.0448,0.0054,9.8065,-0.0305,0.0018,-0.0547,0.0012,0.0012,0,267,-10.9,24.1,-31.6,24.32,-0.03,-0.26,3.1,1009.38,47.213,30.445225,-84.30042,130.21,NaN,,2.09,38.709675,130.6,12-Sep,22826,2018-04-16 19:52:25:870
0.0575,0.012,9.7878,0.0444,0.0053,9.8065,0.0011,0.0307,0.1225,0.0012,-0.0012,0.0012,267,-11,23.9,-31.4,24.32,-0.03,-0.26,3.1,1009.38,50.277,30.445225,-84.30042,130.21,NaN,,2.09,38.709675,130.6,12-Sep,22926,2018-04-16 19:52:25:970
0.0455,0.0144,9.7998,0.0444,0.0055,9.8065,0.0251,0.0137,-0.0235,0.0012,-0.0012,0,267,-11.1,24,-31.4,24.33,-0.03,-0.26,3.1,1009.38,50.277,30.445225,-84.30042,130.21,NaN,,2.09,38.709675,130.6,12-Sep,23026,2018-04-16 19:52:26:070
0.0694,0.0072,9.7351,0.0448,0.0056,9.8065,-0.0089,0.0112,-0.0235,0,0,0.0012,267,-11.2,24.1,-31.5,24.33,-0.03,-0.26,3.1,1009.39,50.277,30.445225,-84.30042,130.21,NaN,,2.09,38.709675,130.6,12-Sep,23126,2018-04-16 19:52:26:170
0.0335,0.0024,9.7758,0.0449,0.0055,9.8065,-0.0114,-0.0031,-0.0307,-0.0012,0,0,267,-11.2,24,-31.4,24.33,-0.03,-0.26,3.1,1009.39,39.952,30.445225,-84.30042,130.21,NaN,,2.09,38.709675,130.6,12-Sep,23226,2018-04-16 19:52:26:270
0.0646,0.012,9.7854,0.0449,0.0055,9.8065,0.0126,-0.0223,-0.069,-0.0012,-0.0012,0.0012,267,-11.2,23.9,-31.3,24.33,-0.03,-0.26,3.1,1009.39,39.952,30.445225,-84.30042,130.21,NaN,,2.09,38.709675,130.6,12-Sep,23326,2018-04-16 19:52:26:370
0.0359,0.0479,9.7878,0.0449,0.0055,9.8065,0.0054,0.0232,-0.0786,0.0012,0.0012,0,267,-11.2,23.9,-31.5,24.33,-0.03,-0.26,3.1,1009.38,39.952,30.445225,-84.30042,130.21,NaN,,2.09,38.709675,130.6,11-Jul,23426,2018-04-16 19:52:26:470
0.0311,-0.0096,9.7471,0.0449,0.0055,9.8065,0.0054,0.0232,-0.0786,0.0012,0.0012,0,267,-11.2,23.9,-31.5,24.33,-0.03,-0.26,3.1,1009.37,41.091,30.445225,-84.30042,130.21,NaN,,2.09,38.709675,130.6,11-Jul,23526,2018-04-16 19:52:26:570
0.0287,-0.012,9.7662,0.0449,0.0055,9.8065,-0.0042,-0.0079,-0.0355,0,0,0.0012,267,-11.2,24,-31.5,24.33,-0.03,-0.26,3.1,1009.37,41.091,30.445225,-84.30042,130.21,NaN,,2.09,38.709675,130.6,11-Jul,23626,2018-04-16 19:52:26:670
0.0575,0.0168,9.6944,0.0444,0.005,9.8065,0.0131,0.0118,-0.1121,0,-0.0012,0,267,-11.3,23.9,-31.7,24.32,-0.03,-0.26,3.1,1009.37,41.091,30.445225,-84.30042,130.21,NaN,,2.09,38.709675,130.6,11-Jul,23726,2018-04-16 19:52:26:770
0.0503,0.0215,9.7567,0.0444,0.005,9.8065,0.0059,0.0118,-0.0595,0.0012,0,0.0012,267,-11.1,23.8,-31.5,24.32,-0.03,-0.26,3.1,1009.37,41.091,30.445225,-84.30042,130.21,NaN,,2.09,38.709675,130.6,11-Jul,23826,2018-04-16 19:52:26:870
0.0383,0.0048,9.7543,0.0444,0.005,9.8065,-0.0348,-0.005,-0.0379,0,0,0,267,-10.9,23.9,-31.2,24.33,-0.03,-0.26,3.1,1009.36,40.207,30.445225,-84.30042,130.21,NaN,,2.09,38.709675,130.6,11-Jul,23926,2018-04-16 19:52:26:970
0.0407,0.0048,9.7639,0.0435,0.0041,9.8066,0.0164,-0.016,-0.0307,0.0012,0,0.0012,267,-10.9,23.9,-31.2,24.33,-0.03,-0.26,3.1,1009.36,40.207,30.445225,-84.30042,130.21,NaN,,2.09,38.709675,130.6,11-Jul,24026,2018-04-16 19:52:27:070
0.0311,0.0168,9.807,0.0435,0.0041,9.8066,0.0164,-0.016,-0.0307,0.0012,0,0.0012,267,-10.9,23.8,-31.4,24.34,-0.02,-0.25,3.1,1009.36,40.207,30.445225,-84.30042,130.21,NaN,,2.09,38.709675,130.6,11-Jul,24126,2018-04-16 19:52:27:170
0.0527,0,9.7519,0.0437,0.0037,9.8066,0.009,-0.0037,-0.0547,-0.0012,0.0012,0.0012,267,-10.9,23.8,-31.4,24.34,-0.02,-0.25,3.1,1009.36,41.006,30.445225,-84.30042,130.21,NaN,,2.09,38.709675,130.6,11-Jul,24226,2018-04-16 19:52:27:270
0.0239,0.0144,9.7878,0.0436,0.0037,9.8066,-0.0053,0.0274,-0.014,0.0012,0.0037,0.0012,267,-11.1,23.8,-31,24.34,-0.02,-0.26,3.1,1009.36,41.006,30.445225,-84.30042,130.21,NaN,,2.09,38.709675,130.6,11-Jul,24326,2018-04-16 19:52:27:370
0.0359,-0.0144,9.7639,0.0434,0.004,9.8066,0.0021,-0.004,-0.069,0,-0.0012,0,267,-11.2,23.7,-31.1,24.34,-0.02,-0.26,3.1,1009.35,41.006,30.445225,-84.30042,130.21,NaN,,2.09,38.709675,130.6,13-Sep,24426,2018-04-16 19:52:27:470
0.0623,-0.0072,9.7639,0.043,0.0038,9.8066,0.0097,-0.0062,-0.0427,0,0,0.0012,267,-11.3,23.7,-31.1,24.34,-0.02,-0.25,3.1,1009.37,40.051,30.445225,-84.30042,130.21,NaN,,2.09,38.709675,130.6,13-Sep,24526,2018-04-16 19:52:27:570
0.0287,0.0024,9.7639,0.043,0.0038,9.8066,0.0097,-0.0062,-0.0427,0,0,0.0012,267,-11.3,23.7,-31.4,24.34,-0.02,-0.25,3.1,1009.37,40.051,30.445225,-84.30042,130.21,NaN,,2.09,38.709675,130.6,13-Sep,24626,2018-04-16 19:52:27:670
0.0503,-0.012,9.7806,0.043,0.0038,9.8066,-0.0167,0.0297,-0.0834,-0.0012,0.0024,0.0024,267,-11.2,23.8,-31.5,24.34,-0.02,-0.25,3.1,1009.38,40.051,30.445225,-84.30042,130.21,NaN,,2.09,38.709675,130.6,13-Sep,24725,2018-04-16 19:52:27:769
0.0407,0.0192,9.692,0.0431,0.004,9.8066,0.0096,0.0271,-0.0954,0.0012,0,0.0012,267,-11.1,23.9,-31.5,24.34,-0.02,-0.25,3.1,1009.38,37.773,30.445225,-84.30042,130.21,NaN,,2.09,38.709675,130.6,13-Sep,24826,2018-04-16 19:52:27:870
0.0551,0.0407,9.8046,0.0431,0.004,9.8066,0.0024,-0.0064,-0.0355,0.0012,-0.0012,0.0024,267,-11.1,23.9,-31.3,24.34,-0.02,-0.25,3.1,1009.38,37.773,30.445225,-84.30042,130.21,NaN,,2.09,38.709675,130.6,13-Sep,24926,2018-04-16 19:52:27:970
0.0599,0.0168,9.8141,0.0432,0.0043,9.8066,0.0167,0.0125,0.0076,0.0012,0.0012,-0.0012,267,-11.1,23.9,-31.3,24.34,-0.02,-0.25,3.1,1009.38,37.773,30.445225,-84.30042,130.21,NaN,,2.09,38.709675,130.6,13-Sep,25026,2018-04-16 19:52:28:070
0.0455,0,9.7662,0.0437,0.0045,9.8066,-0.0102,-0.0212,-0.1145,-0.0012,-0.0012,0,267,-11,23.9,-31.3,24.34,-0.02,-0.25,3.1,1009.39,37.773,30.445225,-84.30042,130.21,NaN,,2.09,38.709675,130.6,13-Sep,25126,2018-04-16 19:52:28:170
0.0479,-0.0072,9.6609,0.0437,0.0045,9.8066,0.0281,-0.0116,-0.0642,-0.0024,0.0024,0,267,-11.1,23.7,-30.9,24.34,-0.03,-0.26,3.1,1009.39,39.578,30.445225,-84.30042,130.21,NaN,,2.09,38.709675,130.6,13-Sep,25226,2018-04-16 19:52:28:270
0.0287,0.012,9.7184,0.0437,0.0045,9.8066,0.0281,-0.0116,-0.0642,-0.0024,0.0024,0,267,-11.1,23.8,-31,24.34,-0.03,-0.26,3.1,1009.39,39.578,30.445225,-84.30042,130.21,NaN,,2.09,38.709675,130.6,13-Sep,25326,2018-04-16 19:52:28:370
0.0623,0.012,9.7615,0.0438,0.0045,9.8066,0.0209,-0.0189,-0.0547,0,0,0.0012,267,-11.1,23.8,-31,24.34,-0.03,-0.26,3.1,1009.39,39.578,30.445225,-84.30042,130.21,NaN,,2.09,38.709675,130.6,12-Sep,25426,2018-04-16 19:52:28:470
0.0383,0.0287,9.7878,0.0438,0.0045,9.8066,-0.0222,0.0051,-0.0331,0,-0.0012,0,267,-11.2,23.8,-31.2,24.34,-0.03,-0.26,3.1,1009.4,41.635,30.445225,-84.30042,130.21,NaN,,2.09,38.709675,130.6,12-Sep,25526,2018-04-16 19:52:28:570
0.0239,-0.0215,9.7686,0.043,0.0043,9.8066,-0.0191,-0.0259,-0.0379,-0.0012,0.0012,0.0012,267,-11.3,23.6,-31.5,24.34,-0.03,-0.25,3.1,1009.4,41.635,30.445225,-84.30042,130.21,NaN,,2.09,38.709675,130.6,12-Sep,25626,2018-04-16 19:52:28:670
0.0407,-0.0168,9.7543,0.0427,0.004,9.8066,-0.0308,-0.016,-0.0283,-0.0024,-0.0012,0.0024,267,-11.4,23.6,-31.5,24.34,-0.02,-0.25,3.1,1009.4,41.635,30.445225,-84.30042,130.21,NaN,,2.09,38.709675,130.6,12-Sep,25726,2018-04-16 19:52:28:770
0.0527,0.0215,9.7303,0.0427,0.004,9.8066,-0.0308,-0.016,-0.0283,-0.0024,-0.0012,0.0024,267,-11.4,23.6,-31.5,24.34,-0.02,-0.25,3.1,1009.4,40.351,30.445225,-84.30042,130.21,NaN,,2.09,38.709675,130.6,12-Sep,25827,2018-04-16 19:52:28:871
0.0335,0.0311,9.6801,0.0425,0.0038,9.8066,0.0174,0.0058,-0.0307,0.0024,0.0012,0,267,-11.3,23.6,-31.5,24.35,-0.02,-0.25,3.1,1009.38,40.351,30.445225,-84.30042,130.21,NaN,,2.09,38.709675,130.6,12-Sep,25926,2018-04-16 19:52:28:970
0.0646,0.0263,9.7998,0.0424,0.0039,9.8066,0.0222,-0.0159,-0.0978,0,0,0.0012,267,-11.2,23.6,-31.3,24.35,-0.02,-0.25,3.1,1009.38,40.351,30.445225,-84.30042,130.21,NaN,,2.09,38.709675,130.6,12-Sep,26026,2018-04-16 19:52:29:070
0.0287,0.0311,9.7423,0.043,0.0047,9.8066,-0.0142,0.0264,-0.0643,-0.0012,0.0012,0.0024,267,-11.2,23.7,-31.3,24.34,-0.03,-0.25,3.1,1009.38,43.791,30.445225,-84.30042,130.21,NaN,,2.09,38.709675,130.6,12-Sep,26126,2018-04-16 19:52:29:170
0.0575,0.0311,9.7184,0.0427,0.0057,9.8066,0.0148,-0.0105,-0.0331,0,0.0012,0,267,-11.3,23.6,-31.1,24.34,-0.03,-0.25,3.1,1009.38,43.791,30.445225,-84.30042,130.21,NaN,,2.09,38.709675,130.6,12-Sep,26226,2018-04-16 19:52:29:270
0.0168,0.0048,9.7255,0.0427,0.0058,9.8066,-0.0068,-0.0154,-0.0451,0.0024,0.0012,0.0012,267,-11.2,23.7,-31.1,24.34,-0.03,-0.25,3.1,1009.38,43.791,30.445225,-84.30042,130.21,NaN,,2.09,38.709675,130.6,12-Sep,26330,2018-04-16 19:52:29:374
0.0359,0.0024,9.7064,0.0434,0.0061,9.8066,-0.0194,-0.0037,-0.0259,0,0,0,267,-11.3,23.7,-31.1,24.33,-0.04,-0.25,3.1,1009.37,43.791,30.445225,-84.30042,130.21,NaN,,2.09,38.709675,130.6,13-Sep,26426,2018-04-16 19:52:29:470
0.012,-0.0048,9.7064,0.0434,0.0061,9.8066,-0.0194,-0.0037,-0.0259,0,0,0,267,-11.3,23.7,-31.1,24.33,-0.04,-0.25,3.1,1009.36,37.934,30.445225,-84.30042,130.21,NaN,,2.09,38.709675,130.6,13-Sep,26526,2018-04-16 19:52:29:570
0.0742,0.0048,9.7758,0.0432,0.0068,9.8066,0.031,-0.002,-0.0307,0.0012,0,-0.0012,267,-11.2,23.7,-31.2,24.33,-0.04,-0.25,3.1,1009.36,37.934,30.445225,-84.30042,130.21,NaN,,2.09,38.709675,130.6,13-Sep,26626,2018-04-16 19:52:29:670
0.0335,0.0263,9.7878,0.0439,0.0072,9.8065,0.0111,0.0167,-0.0642,0.0024,0.0012,0.0012,267,-11.2,23.7,-31,24.33,-0.04,-0.25,3.1,1009.37,37.934,30.445225,-84.30042,130.21,NaN,,2.09,38.709675,130.6,13-Sep,26726,2018-04-16 19:52:29:770
0.0359,-0.0239,9.6992,0.0442,0.0076,9.8065,-0.0106,0.0211,-0.0475,0.0012,0.0024,0.0012,267,-11.2,23.8,-31,24.33,-0.04,-0.26,3.1,1009.37,40.321,30.445225,-84.30042,130.21,NaN,,2.09,38.709675,130.6,13-Sep,26826,2018-04-16 19:52:29:870
0.0407,0.0048,9.7854,0.0442,0.0077,9.8065,0.0277,-0.0125,-0.0379,0.0012,-0.0012,0.0012,267,-11.4,23.7,-31,24.33,-0.04,-0.26,3.1,1009.37,40.321,30.445225,-84.30042,130.21,NaN,,2.09,38.709675,130.6,13-Sep,26926,2018-04-16 19:52:29:970
0.0383,0.0048,9.7854,0.0442,0.0077,9.8065,0.0277,-0.0125,-0.0379,0.0012,-0.0012,0.0012,267,-11.3,23.7,-30.9,24.33,-0.04,-0.26,3.1,1009.37,40.321,30.445225,-84.30042,130.21,NaN,,2.09,38.709675,130.6,13-Sep,27026,2018-04-16 19:52:30:070
0.0623,0.0215,9.7591,0.044,0.0071,9.8065,0.0182,0.0145,-0.0475,0.0012,0,-0.0012,267,-11,23.7,-31.2,24.33,-0.04,-0.26,3.1,1009.37,37.716,30.445225,-84.30042,130.21,NaN,,2.09,38.709675,130.6,13-Sep,27126,2018-04-16 19:52:30:170
0.0239,-0.0311,9.7854,0.0434,0.0062,9.8066,0.0212,0.0201,-0.0475,0,0,0.0012,267,-11,23.7,-31.2,24.33,-0.04,-0.26,3.1,1009.37,37.716,30.445225,-84.30042,130.21,NaN,,2.09,38.709675,130.6,13-Sep,27226,2018-04-16 19:52:30:270
0.0168,-0.0168,9.7567,0.0434,0.0058,9.8066,0.0093,0.0062,-0.0355,0.0012,-0.0024,0,267,-10.6,23.8,-32.1,24.32,-0.04,-0.25,3.1,1009.36,37.716,30.445225,-84.30042,130.21,NaN,,2.09,38.709675,130.6,13-Sep,27326,2018-04-16 19:52:30:370
0.0479,0.0335,9.7423,0.0434,0.0058,9.8066,0.0093,0.0062,-0.0355,0.0012,-0.0024,0,267,-10.3,23.6,-32.7,24.32,-0.04,-0.25,3.1,1009.36,41.547,30.445225,-84.30042,130.21,NaN,,2.09,38.709675,130.6,13-Sep,27425,2018-04-16 19:52:30:469
0.0431,-0.0048,9.7543,0.0434,0.0058,9.8066,-3.00E-04,-0.0106,-0.0523,0.0012,0,0.0012,267,-10.6,23.6,-32.4,24.33,-0.03,-0.25,3.1,1009.36,41.547,30.445225,-84.30042,130.21,NaN,,2.09,38.709675,130.6,13-Sep,27526,2018-04-16 19:52:30:570
0.0503,0.0096,9.7591,0.0432,0.0058,9.8066,0.031,0.0038,-0.0403,-0.0012,-0.0012,0.0012,267,-11,23.6,-31.7,24.33,-0.03,-0.25,3.1,1009.36,41.547,30.445225,-84.30042,130.21,NaN,,2.09,38.709675,130.6,13-Sep,27626,2018-04-16 19:52:30:670
0.0646,0.0048,9.7327,0.0437,0.0058,9.8066,-6.00E-04,-0.0058,-0.0331,0,-0.0012,-0.0012,267,-11.3,23.7,-31.1,24.34,-0.03,-0.25,3.1,1009.38,41.547,30.445225,-84.30042,130.21,NaN,,2.09,38.709675,130.6,13-Sep,27726,2018-04-16 19:52:30:770
0.0287,0,9.7782,0.0437,0.0058,9.8066,-0.015,-0.0058,-0.0283,0,-0.0012,0.0012,267,-11.3,23.5,-31.2,24.33,-0.03,-0.26,3.1,1009.38,39.478,30.445225,-84.30042,130.21,NaN,,2.09,38.709675,130.6,13-Sep,27826,2018-04-16 19:52:30:870
0.0359,-0.0024,9.7351,0.0437,0.0058,9.8066,-0.015,-0.0058,-0.0283,0,-0.0012,0.0012,267,-11.3,23.5,-31.2,24.33,-0.03,-0.26,3.1,1009.38,39.478,30.445225,-84.30042,130.21,NaN,,2.09,38.709675,130.6,13-Sep,27926,2018-04-16 19:52:30:970
0.0239,-0.0072,9.7734,0.0432,0.0052,9.8066,-0.0049,-0.0292,-0.0451,-0.0012,0,0.0024,267,-11.4,23.5,-31.2,24.33,-0.03,-0.26,3.1,1009.39,39.478,30.445225,-84.30042,130.21,NaN,,2.09,38.709675,130.6,13-Sep,28026,2018-04-16 19:52:31:070
0.0431,-0.0072,9.7615,0.0419,0.0037,9.8066,0.0179,0.0083,-0.0595,-0.0012,0.0012,0.0012,267,-11.5,23.5,-31.1,24.34,-0.03,-0.25,3.1,1009.38,43.872,30.445225,-84.30042,130.21,NaN,,2.09,38.709675,130.6,13-Sep,28126,2018-04-16 19:52:31:170
0.0072,0.0072,9.7662,0.0422,0.0032,9.8066,-0.035,0.004,-0.0403,0.0024,0,-0.0012,267,-11.5,23.6,-31.3,24.35,-0.02,-0.25,3.1,1009.38,43.872,30.445225,-84.30042,130.21,NaN,,2.09,38.709675,130.6,13-Sep,28226,2018-04-16 19:52:31:270
0.0742,0.0263,9.7734,0.0416,0.0029,9.8066,0.0183,0.0043,-0.0236,0,0,0.0012,267,-11.3,23.6,-31.2,24.35,-0.02,-0.25,3.1,1009.38,43.872,30.445225,-84.30042,130.21,NaN,,2.09,38.709675,130.6,13-Sep,28326,2018-04-16 19:52:31:370
-0.0024,-0.0144,9.7734,0.0408,0.0028,9.8066,-0.0049,-0.0196,-0.0595,0.0012,0,-0.0012,267,-11.3,23.6,-31.4,24.36,-0.02,-0.24,3.1,1009.37,38.656,30.445225,-84.30042,130.21,NaN,,2.09,38.709675,130.6,13-Sep,28426,2018-04-16 19:52:31:470
0.0742,0.0311,9.7926,0.0408,0.0028,9.8066,-0.0049,-0.0196,-0.0595,0.0012,0,-0.0012,267,-11.3,23.6,-31.4,24.36,-0.02,-0.24,3.1,1009.37,38.656,30.445225,-84.30042,130.21,NaN,,2.09,38.709675,130.6,14-Sep,28526,2018-04-16 19:52:31:570
0.0766,0.0431,9.7136,0.0413,0.0032,9.8066,-0.0556,-0.0151,0.2302,0,0.0012,0,267,-11.4,23.6,-31.2,24.36,-0.02,-0.24,3.1,1009.38,38.656,30.445225,-84.30042,130.21,NaN,,2.09,38.709675,130.6,14-Sep,28626,2018-04-16 19:52:31:670
0.0192,0.0263,9.716,0.0408,0.0036,9.8066,0.0263,-0.0036,0.0363,0,0,-0.0012,267,-11.5,23.6,-31.1,24.36,-0.02,-0.24,3.1,1009.38,38.656,30.445225,-84.30042,130.21,NaN,,2.09,38.709675,130.6,14-Sep,28726,2018-04-16 19:52:31:770
0.0742,0,9.8237,0.0404,0.005,9.8066,0.0314,-0.0361,-0.1289,0.0024,0.0024,0.0012,267,-11.3,23.7,-31.3,24.36,-0.02,-0.24,3.1,1009.38,38.906,30.445225,-84.30042,130.21,NaN,,2.09,38.709675,130.6,14-Sep,28826,2018-04-16 19:52:31:870
0,-0.0024,9.7782,0.041,0.006,9.8066,-0.041,-0.0084,-0.0283,0.0037,0,0,267,-11.3,23.7,-31.3,24.36,-0.03,-0.24,3.1,1009.37,38.906,30.445225,-84.30042,130.21,NaN,,2.09,38.709675,130.6,14-Sep,28926,2018-04-16 19:52:31:970
0.0527,-0.0215,9.7279,0.0406,0.0066,9.8066,-0.0071,-0.0161,-0.026,0.0012,-0.0024,0.0012,267,-11.2,23.7,-31.2,24.35,-0.03,-0.24,3.1,1009.37,38.906,30.445225,-84.30042,130.21,NaN,,2.09,38.709675,130.6,14-Sep,29025,2018-04-16 19:52:32:069
0.0479,0.0287,9.8093,0.0406,0.0066,9.8066,-0.0071,-0.0161,-0.026,0.0012,-0.0024,0.0012,267,-11.2,23.7,-31.2,24.35,-0.03,-0.24,3.1,1009.37,39.441,30.445225,-84.30042,130.21,NaN,,2.09,38.709675,130.6,14-Sep,29126,2018-04-16 19:52:32:170
0.0239,0.0479,9.7471,0.0402,0.0071,9.8066,5.00E-04,0.0048,-0.026,0,-0.0012,0.0012,267,-11.1,23.8,-31.5,24.35,-0.04,-0.24,3.1,1009.37,39.441,30.445225,-84.30042,130.21,NaN,,2.09,38.709675,130.6,14-Sep,29226,2018-04-16 19:52:32:270
0.0407,0.0479,9.7423,0.0402,0.0076,9.8066,5.00E-04,0.0403,-0.0643,0,0,0.0012,267,-11.2,23.9,-32,24.34,-0.04,-0.24,3.1,1009.37,39.441,30.445225,-84.30042,130.21,NaN,,2.09,38.709675,130.6,14-Sep,29327,2018-04-16 19:52:32:371
0.0359,0.0048,9.7423,0.0403,0.0077,9.8066,-0.0044,-5.00E-04,-0.0451,0.0012,0,0.0012,267,-11.2,23.8,-31.7,24.34,-0.04,-0.23,3.1,1009.37,39.68,30.445225,-84.30042,130.21,NaN,,2.09,38.709675,130.6,13-Oct,29426,2018-04-16 19:52:32:470
0.012,0.0263,9.7974,0.0407,0.0073,9.8066,0.0167,0.019,-0.0523,0,-0.0012,-0.0012,267,-11.1,23.8,-31.5,24.35,-0.04,-0.24,3.1,1009.37,39.68,30.445225,-84.30042,130.21,NaN,,2.09,38.709675,130.6,13-Oct,29526,2018-04-16 19:52:32:570
0.0694,0.0359,9.7327,0.041,0.0073,9.8066,0.0285,0.0286,-0.0738,-0.0012,0.0012,0,267,-11.2,23.8,-31.5,24.35,-0.04,-0.24,3.1,1009.37,39.68,30.445225,-84.30042,130.21,NaN,,2.09,38.709675,130.6,13-Oct,29627,2018-04-16 19:52:32:671
0.0718,0.0024,9.7447,0.041,0.0073,9.8066,0.0285,0.0286,-0.0738,-0.0012,0.0012,0,267,-11.2,23.8,-31.5,24.35,-0.04,-0.24,3.1,1009.37,40.756,30.445225,-84.30042,130.21,NaN,,2.09,38.709675,130.6,13-Oct,29726,2018-04-16 19:52:32:770
0.0551,-0.0024,9.7591,0.0418,0.008,9.8066,0.0324,-0.008,-0.0403,-0.0012,0.0012,-0.0024,267,-11.2,23.8,-31.8,24.34,-0.04,-0.24,3.1,1009.37,40.756,30.445225,-84.30042,130.21,NaN,,2.09,38.709675,130.6,13-Oct,29826,2018-04-16 19:52:32:870
0.0311,-0.0144,9.7662,0.0431,0.0073,9.8066,-0.0287,-0.0049,-0.0475,0.0012,0.0012,-0.0024,267,-11.3,23.7,-31.6,24.33,-0.05,-0.24,3.1,1009.37,40.756,30.445225,-84.30042,130.21,NaN,,2.09,38.709675,130.6,13-Oct,29926,2018-04-16 19:52:32:970
0.0263,-0.0096,9.7543,0.0428,0.0068,9.8066,-0.0093,0.0076,-0.0355,0,0,0,267,-11.2,23.7,-31.4,24.33,-0.04,-0.25,3.1,1009.37,40.609,30.445225,-84.30042,130.21,NaN,,2.09,38.709675,130.6,13-Oct,30026,2018-04-16 19:52:33:070
0.0742,0.0024,9.771,0.0419,0.0055,9.8066,0.0323,-0.0031,-0.0355,0.0012,-0.0012,0,267,-11.3,23.6,-31.1,24.34,-0.04,-0.25,3.1,1009.37,40.609,30.445225,-84.30042,130.21,NaN,,2.09,38.709675,130.6,13-Oct,30126,2018-04-16 19:52:33:170
0.0192,0.0072,9.7782,0.0416,0.0046,9.8066,0.0015,0.0122,-0.0523,0.0012,-0.0012,0.0012,267,-11.2,23.7,-31.4,24.35,-0.03,-0.24,3.1,1009.37,40.609,30.445225,-84.30042,130.21,NaN,,2.09,38.709675,130.6,13-Oct,30226,2018-04-16 19:52:33:270
0.0575,-0.0096,9.771,0.0416,0.0046,9.8066,0.0015,0.0122,-0.0523,0.0012,-0.0012,0.0012,267,-11,23.7,-31.6,24.35,-0.03,-0.24,3.1,1009.37,40.609,30.445225,-84.30042,130.21,NaN,,2.09,38.709675,130.6,13-Oct,30327,2018-04-16 19:52:33:371
0.0168,-0.0144,9.7734,0.0413,0.004,9.8066,-0.0078,0.008,-0.0331,0,0,0,267,-11,23.7,-31.8,24.35,-0.02,-0.24,3.1,1009.35,40.35,30.445225,-84.30042,130.21,NaN,,2.09,38.709675,130.6,13-Sep,30426,2018-04-16 19:52:33:470
0.0623,-0.0072,9.7758,0.041,0.0038,9.8066,0.0212,-0.011,-0.0307,-0.0012,0.0012,0,267,-11,23.7,-31.8,24.35,-0.02,-0.24,3.1,1009.35,40.35,30.445225,-84.30042,130.21,NaN,,2.09,38.709675,130.6,13-Sep,30526,2018-04-16 19:52:33:570
0.0168,0.0048,9.7639,0.0414,0.0035,9.8066,-0.0175,-0.0299,-0.0355,-0.0012,0.0012,0,267,-11.1,23.7,-31.7,24.35,-0.02,-0.24,3.1,1009.34,40.35,30.445225,-84.30042,130.21,NaN,,2.09,38.709675,130.6,13-Sep,30626,2018-04-16 19:52:33:670
0.0335,0.0072,9.7639,0.0411,0.0031,9.8066,0.0068,-0.0175,-0.0571,0.0024,-0.0024,0,267,-11.3,23.7,-31.5,24.35,-0.02,-0.24,3.1,1009.34,40.628,30.445225,-84.30042,130.21,NaN,,2.09,38.709675,130.6,13-Sep,30726,2018-04-16 19:52:33:770
0.0646,0.012,9.7878,0.0409,0.0025,9.8066,0.0237,0.0095,-0.0188,0,-0.0012,-0.0012,267,-11.3,23.7,-31.3,24.36,-0.02,-0.24,3.1,1009.34,40.628,30.445225,-84.30042,130.21,NaN,,2.09,38.709675,130.6,13-Sep,30826,2018-04-16 19:52:33:870
0.0192,0,9.7734,0.0409,0.0025,9.8066,0.0237,0.0095,-0.0188,0,0,0.0012,267,-11.3,23.7,-31.3,24.36,-0.01,-0.24,3.1,1009.34,40.628,30.445225,-84.30042,130.21,NaN,,2.09,38.709675,130.6,13-Sep,30926,2018-04-16 19:52:33:970
0.0599,-0.0192,9.7327,0.0412,0.0027,9.8066,-0.0172,0.0357,-0.0475,0.0012,0.0024,-0.0012,267,-11.3,23.6,-31.4,24.36,-0.02,-0.24,3.1,1009.34,41.907,30.445225,-84.30042,130.21,NaN,,2.09,38.709675,130.6,13-Sep,31026,2018-04-16 19:52:34:070
0.0335,-0.0048,9.7686,0.0412,0.0027,9.8066,0.0283,-0.0098,-0.0643,-0.0012,0,0.0012,267,-11.2,23.5,-31.3,24.36,-0.02,-0.24,3.1,1009.34,41.907,30.445225,-84.30042,130.21,NaN,,2.09,38.709675,130.6,13-Sep,31126,2018-04-16 19:52:34:170
0.0335,-0.0072,9.7519,0.0411,0.0025,9.8066,-0.0076,-0.0097,-0.0547,-0.0012,0,0.0012,267,-11.2,23.5,-31.3,24.36,-0.02,-0.24,3.1,1009.35,41.907,30.445225,-84.30042,130.21,NaN,,2.09,38.709675,130.6,13-Sep,31226,2018-04-16 19:52:34:270
0.0263,0.0048,9.7806,0.0411,0.0025,9.8066,-0.0196,0.0118,-0.0523,0.0012,-0.0012,0.0012,267,-11.3,23.5,-31.3,24.36,-0.01,-0.24,3.1,1009.35,41.907,30.445225,-84.30042,130.21,NaN,,2.09,38.709675,130.6,13-Sep,31326,2018-04-16 19:52:34:370
0.0239,0.0096,9.7782,0.0407,0.0027,9.8066,0.0335,-0.0051,-0.026,0,0.0024,0.0024,267,-11.3,23.6,-31.3,24.36,-0.01,-0.24,3.1,1009.35,41.321,30.445225,-84.30042,130.21,NaN,,2.09,38.709675,130.6,13-Sep,31426,2018-04-16 19:52:34:470
0.0096,-0.0168,9.7902,0.0407,0.0027,9.8066,0.0335,-0.0051,-0.026,0,0.0024,0.0024,267,-11.2,23.7,-31.3,24.36,-0.02,-0.24,3.1,1009.35,41.321,30.445225,-84.30042,130.21,NaN,,2.09,38.709675,130.6,13-Sep,31526,2018-04-16 19:52:34:570
0.0694,-0.0311,9.7662,0.0403,0.0023,9.8066,0.0291,-0.0334,-0.0403,-0.0024,0.0012,0,267,-11.1,23.8,-31.2,24.36,-0.01,-0.24,3.1,1009.34,41.321,30.445225,-84.30042,130.21,NaN,,2.09,38.709675,130.6,13-Sep,31626,2018-04-16 19:52:34:670
0.0694,-0.0168,9.7686,0.0413,0.0021,9.8066,-0.0318,-0.0069,-0.0307,0.0024,0.0012,0.0012,267,-11.2,23.8,-31.2,24.36,-0.01,-0.24,3.1,1009.32,42.022,30.445225,-84.30042,130.21,NaN,,2.09,38.709675,130.6,13-Sep,31726,2018-04-16 19:52:34:770
0.0694,-0.0168,9.7686,0.0411,0.0017,9.8066,0.0043,-0.0065,-0.0547,0.0012,0.0012,0.0024,267,-11.2,23.8,-31.2,24.36,-0.01,-0.24,3.1,1009.32,42.022,30.445225,-84.30042,130.21,NaN,,2.09,38.709675,130.6,13-Sep,31826,2018-04-16 19:52:34:870
0.0599,-0.0072,9.7686,0.0409,0.0012,9.8066,0.0238,-0.0108,-0.0379,-0.0012,0.0012,0,267,-11.2,23.7,-31.4,24.36,-0.01,-0.24,3.1,1009.32,42.022,30.445225,-84.30042,130.21,NaN,,2.09,38.709675,130.6,13-Sep,31926,2018-04-16 19:52:34:970
0.0742,0.0479,9.807,0.0408,0.0012,9.8066,0.0335,0.0467,4.00E-04,-0.0012,0,0.0024,267,-11.1,23.7,-31.3,24.36,-0.01,-0.24,3.1,1009.33,42.468,30.445225,-84.30042,130.21,NaN,,2.09,38.709675,130.6,13-Sep,32026,2018-04-16 19:52:35:070
0.0335,0.0287,9.7615,0.0408,0.0012,9.8066,0.0335,0.0467,4.00E-04,-0.0012,0,0.0024,267,-11,23.7,-31.2,24.37,-0.01,-0.24,3.1,1009.33,42.468,30.445225,-84.30042,130.21,NaN,,2.09,38.709675,130.6,13-Sep,32126,2018-04-16 19:52:35:170
0.0383,-0.0192,9.7662,0.0415,9.00E-04,9.8066,-0.0272,0.023,-0.0403,-0.0012,0.0012,-0.0012,267,-11.1,23.7,-31.1,24.36,-0.01,-0.24,3.1,1009.33,42.468,30.445225,-84.30042,130.21,NaN,,2.09,38.709675,130.6,13-Sep,32226,2018-04-16 19:52:35:270
0.0215,-0.0263,9.8524,0.0418,8.00E-04,9.8066,0.0276,-0.0223,-0.0331,0.0024,0,0.0024,267,-11.3,23.7,-31.1,24.36,0,-0.24,3.1,1009.33,43.489,30.445225,-84.30042,130.21,NaN,,2.09,38.709675,130.6,13-Sep,32327,2018-04-16 19:52:35:371
0.0192,-0.012,9.7351,0.042,6.00E-04,9.8066,0.0035,0.0113,0.01,0.0012,0,0,267,-11.3,23.7,-31.1,24.36,0,-0.24,3.1,1009.32,43.489,30.445225,-84.30042,130.21,NaN,,2.09,38.709675,130.6,13-Nov,32425,2018-04-16 19:52:35:469
0.0599,0.0215,9.7639,0.0418,0.0014,9.8066,-0.0131,0.0226,-0.0451,0.0012,0,0,267,-11.4,23.6,-31.1,24.36,0,-0.24,3.1,1009.32,43.489,30.445225,-84.30042,130.21,NaN,,2.09,38.709675,130.6,13-Nov,32526,2018-04-16 19:52:35:570
0.0575,0.0024,9.7279,0.0418,0.0019,9.8066,0.0061,0.0173,-0.0499,0.0012,0,0.0024,267,-11.4,23.6,-31.4,24.36,-0.01,-0.24,3.1,1009.32,41.952,30.445225,-84.30042,130.21,NaN,,2.09,38.709675,130.6,13-Nov,32626,2018-04-16 19:52:35:670
-0.0048,0,9.7662,0.0418,0.0019,9.8066,0.0061,0.0173,-0.0499,0.0012,0,0.0012,267,-11.4,23.5,-31.4,24.36,-0.01,-0.24,3.1,1009.32,41.952,30.445225,-84.30042,130.21,NaN,,2.09,38.709675,130.6,13-Nov,32726,2018-04-16 19:52:35:770
0.0742,0.0024,9.771,0.0407,0.0021,9.8066,0.0048,-0.0117,-0.0451,0,0.0012,0.0012,267,-11.2,23.6,-31.3,24.36,-0.01,-0.24,3.1,1009.32,41.952,30.445225,-84.30042,130.21,NaN,,2.09,38.709675,130.6,13-Nov,32826,2018-04-16 19:52:35:870
0.0311,0.0072,9.7639,0.0412,0.0018,9.8066,-0.0101,0.0054,-0.0427,0,0,0.0012,267,-11.3,23.6,-30.9,24.36,-0.01,-0.24,3.1,1009.34,41.952,30.445225,-84.30042,130.21,NaN,,2.09,38.709675,130.6,13-Nov,32926,2018-04-16 19:52:35:970
0.0742,-0.0024,9.7639,0.0409,0.0014,9.8066,-0.0026,-0.0302,-0.0379,0,0,0.0012,267,-11.3,23.6,-30.9,24.36,-0.01,-0.24,3.1,1009.34,37.52,30.445225,-84.30042,130.21,NaN,,2.09,38.709675,130.6,13-Nov,33026,2018-04-16 19:52:36:070
0.0479,0,9.7351,0.0396,8.00E-04,9.8066,0.0346,0.016,-0.0595,-0.0012,0.0012,0.0012,267,-11.3,23.6,-31,24.36,-0.01,-0.24,3.1,1009.36,37.52,30.445225,-84.30042,130.21,NaN,,2.09,38.709675,130.6,13-Nov,33126,2018-04-16 19:52:36:170
0.0239,0.0096,9.7734,0.0403,0.0013,9.8066,-0.014,0.0131,-0.0643,0.0024,0,0,267,-11.4,23.5,-31,24.37,0,-0.23,3.1,1009.36,37.52,30.445225,-84.30042,130.21,NaN,,2.09,38.709675,130.6,13-Nov,33226,2018-04-16 19:52:36:270
0.0694,0.0383,9.7303,0.0403,0.0013,9.8066,-0.014,0.0131,-0.0643,0,0.0012,0.0012,267,-11.5,23.5,-31.2,24.37,-0.01,-0.24,3.1,1009.37,43.96,30.445225,-84.30042,130.21,NaN,,2.09,38.709675,130.6,13-Nov,33326,2018-04-16 19:52:36:370
0.0287,0.012,9.7567,0.0414,0.0021,9.8066,0.0233,0.0267,-0.0283,-0.0024,0.0012,0.0024,267,-11.5,23.5,-31.7,24.35,-0.01,-0.24,3.1,1009.37,43.96,30.445225,-84.30042,130.21,NaN,,2.09,38.709675,130.6,13-Sep,33426,2018-04-16 19:52:36:470
0.0694,-0.0048,9.783,0.0416,0.0031,9.8066,0.0278,-0.0079,-0.0236,-0.0012,0,0.0012,267,-11.4,23.5,-31.9,24.35,-0.02,-0.24,3.1,1009.36,43.96,30.445225,-84.30042,130.21,NaN,,2.09,38.709675,130.6,13-Sep,33526,2018-04-16 19:52:36:570
0.0407,0.0192,9.807,0.0416,0.0031,9.8066,0.0278,-0.0079,-0.0236,-0.0012,0,0.0012,267,-11.3,23.7,-31.5,24.35,-0.02,-0.24,3.1,1009.36,41.384,30.445225,-84.30042,130.21,NaN,,2.09,38.709675,130.6,13-Sep,33626,2018-04-16 19:52:36:670
0.0479,0.0024,9.7471,0.042,0.0033,9.8066,0.0274,0.0254,-0.0643,0.0012,0,0.0012,267,-11.3,23.7,-31.5,24.35,-0.02,-0.24,3.1,1009.35,41.384,30.445225,-84.30042,130.21,NaN,,2.09,38.709675,130.6,13-Sep,33726,2018-04-16 19:52:36:770
0.0263,0.0192,9.7519,0.0431,0.0041,9.8066,-0.0311,-0.0184,-0.0235,0,0,-0.0012,267,-11.5,23.6,-31.1,24.35,-0.02,-0.25,3.1,1009.35,41.384,30.445225,-84.30042,130.21,NaN,,2.09,38.709675,130.6,13-Sep,33826,2018-04-16 19:52:36:870
0.0431,0.0144,9.7136,0.0429,0.0048,9.8066,2.00E-04,0.0095,-0.093,0,0,-0.0012,267,-11.6,23.4,-31,27.27,-0.02,-0.25,3.1,1009.36,39.722,30.445225,-84.30042,130.21,NaN,,2.09,38.709675,130.6,13-Sep,33926,2018-04-16 19:52:36:970
0.0479,-0.0335,9.7495,0.0421,0.0055,9.8066,0.0273,0.0137,-0.0595,0.0012,-0.0012,0,267,-11.6,23.4,-31.1,27.27,-0.03,-0.25,3.1,1009.36,39.722,30.445225,-84.30042,130.21,NaN,,2.09,38.709675,130.6,13-Sep,34026,2018-04-16 19:52:37:070
0.0527,0.0096,9.7543,0.0427,0.0054,9.8066,-0.0307,-0.0102,-0.0427,0,0,0.0024,267,-11.7,23.4,-31.2,27.27,-0.03,-0.25,3.1,1009.35,39.722,30.445225,-84.30042,130.21,NaN,,2.09,38.709675,130.6,13-Sep,34126,2018-04-16 19:52:37:170
0.0551,0.0144,9.7519,0.0427,0.0054,9.8066,-0.0307,-0.0102,-0.0427,0,0,-0.0012,267,-11.6,23.4,-31.3,27.27,-0.03,-0.25,3.1,1009.35,39.722,30.445225,-84.30042,130.21,NaN,,2.09,38.709675,130.6,13-Sep,34226,2018-04-16 19:52:37:270
0.0359,0.0144,9.7399,0.0423,0.0052,9.8066,-0.0064,0.0092,-0.0666,0,0,0.0012,267,-11.6,23.4,-31.3,27.27,-0.03,-0.25,3.1,1009.35,37.368,30.445225,-84.30042,130.21,NaN,,2.09,38.709675,130.6,13-Sep,34326,2018-04-16 19:52:37:370
0.0479,-0.0072,9.771,0.0416,0.005,9.8066,0.0254,0.007,-0.0667,0.0012,-0.0012,0,267,-11.5,23.5,-31.3,24.34,-0.03,-0.25,3.1,1009.35,37.368,30.445225,-84.30042,130.21,NaN,,2.09,38.709675,130.6,13-Sep,34426,2018-04-16 19:52:37:470
0.0263,0,9.7662,0.0416,0.005,9.8066,-0.0105,-0.0146,-0.0307,0.0012,-0.0012,0,267,-11.5,23.6,-31.2,24.35,-0.03,-0.24,3.1,1009.34,37.368,30.445225,-84.30042,130.21,NaN,,2.09,38.709675,130.6,13-Sep,34526,2018-04-16 19:52:37:570
0.0551,0.0096,9.7758,0.0415,0.0047,9.8066,0.0016,-0.0095,-0.0331,0,-0.0024,0,267,-11.6,23.5,-30.9,26.3,-0.03,-0.24,3.1,1009.34,38.486,30.445225,-84.30042,130.21,NaN,,2.09,38.709675,130.6,13-Sep,34626,2018-04-16 19:52:37:670
0.0503,0.0096,9.7639,0.0414,0.0046,9.8066,0.0089,2.00E-04,-0.0283,-0.0012,0.0012,0.0012,267,-11.6,23.4,-30.7,27.28,-0.03,-0.24,3.1,1009.33,38.486,30.445225,-84.30042,130.21,NaN,,2.09,38.709675,130.6,13-Sep,34726,2018-04-16 19:52:37:770
0.0479,-0.0048,9.7447,0.0414,0.0046,9.8066,0.0089,2.00E-04,-0.0283,-0.0012,-0.0012,0.0012,267,-11.5,23.5,-31,24.35,-0.03,-0.24,3.1,1009.33,38.486,30.445225,-84.30042,130.21,NaN,,2.09,38.709675,130.6,13-Sep,34826,2018-04-16 19:52:37:870
0.0455,0.0048,9.7591,0.0414,0.0046,9.8066,0.0041,2.00E-04,-0.0475,0,-0.0012,0.0012,267,-11.5,23.5,-31,24.35,-0.03,-0.24,3.1,1009.34,38.074,30.445225,-84.30042,130.21,NaN,,2.09,38.709675,130.6,13-Sep,34926,2018-04-16 19:52:37:970
0.0407,0,9.7567,0.0409,0.004,9.8066,0.0213,0.0127,-0.0643,0,0,0.0024,267,-11,23.5,-32,24.34,-0.03,-0.24,3.1,1009.34,38.074,30.445225,-84.30042,130.21,NaN,,2.09,38.709675,130.6,13-Sep,35026,2018-04-16 19:52:38:070
0.0575,0.0239,9.7854,0.0409,0.004,9.8066,0.0046,-0.0088,-0.0475,0,0,0.0024,267,-10.2,23.5,-33.2,22.33,-0.02,-0.24,3.1,1009.35,38.074,30.445225,-84.30042,130.21,NaN,,2.09,38.709675,130.6,13-Sep,35126,2018-04-16 19:52:38:170
0.0287,0,9.7567,0.0408,0.0038,9.8066,-0.0168,-0.011,-0.0331,0.0012,0,0.0012,267,-10,23.5,-33.6,22.33,-0.02,-0.24,3.1,1009.35,37.627,30.445225,-84.30042,130.21,NaN,,2.09,38.709675,130.6,13-Sep,35226,2018-04-16 19:52:38:270
0.0263,-0.0263,9.7734,0.0403,0.0033,9.8066,-0.014,-0.0296,-0.0331,0.0012,0,0.0012,267,-10.5,23.5,-32.5,22.34,-0.02,-0.24,3.1,1009.35,37.627,30.445225,-84.30042,130.21,NaN,,2.09,38.709675,130.6,13-Sep,35327,2018-04-16 19:52:38:371
0.0215,-0.0192,9.7471,0.0403,0.0033,9.8066,-0.014,-0.0296,-0.0331,0.0024,0.0024,-0.0012,267,-11.2,23.4,-31.1,25.29,-0.02,-0.24,3.1,1009.35,37.627,30.445225,-84.30042,130.21,NaN,,2.09,38.709675,130.6,14-Oct,35426,2018-04-16 19:52:38:470
0.0479,-0.0072,9.7758,0.0397,0.0025,9.8066,-0.011,-0.0121,-0.0355,-0.0012,0,0.0012,267,-11.2,23.5,-31.1,24.37,-0.01,-0.23,3.1,1009.35,37.627,30.445225,-84.30042,130.21,NaN,,2.09,38.709675,130.6,14-Oct,35526,2018-04-16 19:52:38:570
0.0407,-0.0239,9.7639,0.0397,0.0024,9.8066,-0.0086,-0.012,-0.0355,0,0,0.0024,267,-11.2,23.5,-31.1,24.37,-0.01,-0.23,3.1,1009.35,37.178,30.445225,-84.30042,130.21,NaN,,2.09,38.709675,130.6,14-Oct,35626,2018-04-16 19:52:38:670
0.0551,-0.0239,9.7519,0.0399,0.0024,9.8066,0.0151,-0.0264,-0.0547,0,0,0.0024,267,-11.3,23.4,-31,25.3,-0.01,-0.23,3.1,1009.35,37.178,30.445225,-84.30042,130.21,NaN,,2.09,38.709675,130.6,14-Oct,35726,2018-04-16 19:52:38:770
0.0192,-0.0192,9.7974,0.0399,0.0023,9.8066,0.0032,-0.0023,-0.0523,-0.0012,0.0012,0.0024,267,-11.4,23.4,-31,25.3,-0.01,-0.23,3.1,1009.35,37.178,30.445225,-84.30042,130.21,NaN,,2.09,38.709675,130.6,14-Oct,35826,2018-04-16 19:52:38:870
0.0431,0.0072,9.7327,0.0398,0.002,9.8066,0.0128,4.00E-04,-0.026,0.0012,-0.0012,0.0012,267,-11.5,23.5,-30.9,24.37,-0.01,-0.23,3.1,1009.38,39.748,30.445225,-84.30042,130.21,NaN,,2.09,38.709675,130.6,14-Oct,35926,2018-04-16 19:52:38:970
0.0335,-0.0168,9.7591,0.0398,0.002,9.8066,0.0128,4.00E-04,-0.026,0.0024,0,0,267,-11.4,23.6,-30.9,24.37,-0.01,-0.23,3.1,1009.38,39.748,30.445225,-84.30042,130.21,NaN,,2.09,38.709675,130.6,14-Oct,36026,2018-04-16 19:52:39:070
0.0359,0.0096,9.7375,0.0397,0.0019,9.8066,0.0273,0.0077,-0.0475,0,0,-0.0012,267,-11.2,23.6,-31.2,24.37,-0.01,-0.23,3.1,1009.37,39.748,30.445225,-84.30042,130.21,NaN,,2.09,38.709675,130.6,14-Oct,36126,2018-04-16 19:52:39:170
0.0383,0.0024,9.7567,0.0397,0.0019,9.8066,-0.0158,-0.0067,-0.0547,0,0.0012,0,267,-11.1,23.6,-31.1,24.37,-0.01,-0.23,3.1,1009.37,38.393,30.445225,-84.30042,130.21,NaN,,2.09,38.709675,130.6,14-Oct,36226,2018-04-16 19:52:39:270
0.0479,-0.0072,9.7375,0.0397,0.0019,9.8066,0.0081,-0.0091,-0.0691,0,0.0012,0,267,-11.1,23.6,-31.1,24.37,-0.01,-0.23,3.1,1009.36,38.393,30.445225,-84.30042,130.21,NaN,,2.09,38.709675,130.6,14-Oct,36326,2018-04-16 19:52:39:370
0.0287,-0.0024,9.7591,0.0397,0.0019,9.8066,-0.0038,0.0029,-0.0451,0.0012,-0.0012,-0.0012,267,-11.4,23.6,-30.9,24.37,-0.01,-0.23,3.1,1009.36,38.393,30.445225,-84.30042,130.21,NaN,,2.09,38.709675,130.6,14-Nov,36426,2018-04-16 19:52:39:470
0.0192,-0.012,9.7615,0.0397,0.0019,9.8066,0.001,0.0101,-0.0427,0,0.0012,0.0024,267,-11.5,23.7,-31,24.37,-0.01,-0.23,3.1,1009.35,39.413,30.445225,-84.30042,130.21,NaN,,2.09,38.709675,130.6,14-Nov,36526,2018-04-16 19:52:39:570
0.0551,0,9.7639,0.0397,0.0019,9.8066,0.001,0.0101,-0.0427,0.0012,0,0.0012,267,-11.6,23.6,-30.8,26.32,-0.01,-0.23,3.1,1009.35,39.413,30.445225,-84.30042,130.21,NaN,,2.09,38.709675,130.6,14-Nov,36626,2018-04-16 19:52:39:670
0.0575,0.0096,9.7567,0.0397,0.0019,9.8066,0.0177,0.0077,-0.0499,0,0,0.0012,267,-11.4,23.7,-31,24.37,-0.01,-0.23,3.1,1009.35,39.413,30.445225,-84.30042,130.21,NaN,,2.09,38.709675,130.6,14-Nov,36726,2018-04-16 19:52:39:770
0.0479,-0.0192,9.7639,0.0393,0.0013,9.8066,0.0014,0.0107,-0.0523,-0.0012,-0.0012,0.0012,267,-11.2,23.7,-31.1,24.37,-0.01,-0.23,3.1,1009.35,39.413,30.445225,-84.30042,130.21,NaN,,2.09,38.709675,130.6,14-Nov,36826,2018-04-16 19:52:39:870
0.0215,0.0048,9.7543,0.0393,0.0012,9.8066,0.0134,0.006,-0.0475,-0.0012,-0.0012,0.0012,267,-11.2,23.7,-31.1,24.37,-0.01,-0.23,3.1,1009.36,39.697,30.445225,-84.30042,130.21,NaN,,2.09,38.709675,130.6,14-Nov,36927,2018-04-16 19:52:39:971
0.0359,-0.0048,9.7758,0.0393,0.0012,9.8066,-0.0034,-0.006,-0.0307,0.0012,0,0,267,-11.2,23.7,-31,24.37,-0.01,-0.23,3.1,1009.36,39.697,30.445225,-84.30042,130.21,NaN,,2.09,38.709675,130.6,14-Nov,37027,2018-04-16 19:52:40:071
0.0383,-0.0048,9.7327,0.0393,0.0012,9.8066,-0.0106,-0.006,-0.0523,0.0037,0.0024,0,267,-11.2,23.7,-30.9,24.37,-0.01,-0.23,3.1,1009.36,39.697,30.445225,-84.30042,130.21,NaN,,2.09,38.709675,130.6,14-Nov,37126,2018-04-16 19:52:40:170
0.067,0.0407,9.8644,0.0393,0.0012,9.8066,-0.0106,-0.006,-0.0523,-0.0012,0,0,267,-11.1,23.7,-31,24.37,-0.01,-0.23,3.1,1009.36,42.08,30.445225,-84.30042,130.21,NaN,,2.09,38.709675,130.6,14-Nov,37227,2018-04-16 19:52:40:271
0.0431,-0.0072,9.7303,0.0397,0.0016,9.8066,-0.0133,-0.0208,-0.0547,0.0024,0,0,267,-11.2,23.8,-31.1,24.37,-0.01,-0.23,3.1,1009.36,42.08,30.445225,-84.30042,130.21,NaN,,2.09,38.709675,130.6,14-Nov,37326,2018-04-16 19:52:40:370
0.0311,0.0024,9.7806,0.0401,0.002,9.8066,0.0126,0.0172,-0.081,0.0024,0,0,267,-11.3,23.8,-31,24.37,-0.01,-0.23,3.1,1009.36,42.08,30.445225,-84.30042,130.21,NaN,,2.09,38.709675,130.6,13-Oct,37426,2018-04-16 19:52:40:470
0.0335,-0.0263,9.7662,0.0406,0.0023,9.8066,0.0312,-0.0118,-0.0403,0.0024,0,0,267,-11.3,23.8,-31.2,24.36,-0.01,-0.24,3.1,1009.37,38.838,30.445225,-84.30042,130.21,NaN,,2.09,38.709675,130.6,13-Oct,37526,2018-04-16 19:52:40:570
0.0168,-0.0048,9.7519,0.0408,0.0023,9.8066,-0.0145,-0.0215,-0.0331,0.0012,-0.0012,0,267,-11.3,23.8,-31.2,24.36,-0.01,-0.24,3.1,1009.37,38.838,30.445225,-84.30042,130.21,NaN,,2.09,38.709675,130.6,13-Oct,37627,2018-04-16 19:52:40:671
0.0718,0.0192,9.7854,0.0411,0.0025,9.8066,0.0092,-0.0144,-0.0475,0,0.0024,0.0024,267,-11.4,23.7,-31.1,24.36,-0.01,-0.24,3.1,1009.38,38.838,30.445225,-84.30042,130.21,NaN,,2.09,38.709675,130.6,13-Oct,37726,2018-04-16 19:52:40:770
0.0335,0.0048,9.771,0.0411,0.0025,9.8066,0.0092,-0.0144,-0.0475,0.0037,0.0012,0.0012,267,-11.4,23.7,-31.1,24.36,-0.01,-0.24,3.1,1009.38,37.764,30.445225,-84.30042,130.21,NaN,,2.09,38.709675,130.6,13-Oct,37826,2018-04-16 19:52:40:870
0.0527,0.0263,9.7615,0.0411,0.0025,9.8066,0.0211,0.0071,-0.0619,0.0024,-0.0012,0.0012,267,-11.4,23.6,-31.1,24.36,-0.01,-0.24,3.1,1009.4,37.764,30.445225,-84.30042,130.21,NaN,,2.09,38.709675,130.6,13-Oct,37926,2018-04-16 19:52:40:970
0.0431,0.0431,9.7232,0.0411,0.0025,9.8066,0.002,0.0406,-0.0834,0.0012,0,0.0012,267,-11.3,23.6,-31.1,24.36,-0.01,-0.24,3.1,1009.4,37.764,30.445225,-84.30042,130.21,NaN,,2.09,38.709675,130.6,13-Oct,38026,2018-04-16 19:52:41:070
0.0431,0.0239,9.7519,0.0411,0.0025,9.8066,-0.0028,0.0263,-0.0451,0.0012,0,0.0012,267,-11.2,23.6,-31.1,24.36,-0.01,-0.24,3.1,1009.39,37.764,30.445225,-84.30042,130.21,NaN,,2.09,38.709675,130.6,13-Oct,38126,2018-04-16 19:52:41:170
0.0383,-0.0024,9.7782,0.0411,0.0025,9.8066,0.0331,-0.0121,-0.0403,0,0.0024,0.0024,267,-11.3,23.5,-30.8,24.36,-0.01,-0.24,3.1,1009.39,39.051,30.445225,-84.30042,130.21,NaN,,2.09,38.709675,130.6,13-Oct,38226,2018-04-16 19:52:41:270
0.0192,0.012,9.7782,0.0415,0.0017,9.8066,-0.02,-0.004,-0.0499,0.0012,-0.0012,0,267,-11.4,23.4,-30.7,25.29,-0.01,-0.24,3.1,1009.39,39.051,30.445225,-84.30042,130.21,NaN,,2.09,38.709675,130.6,13-Oct,38326,2018-04-16 19:52:41:370
0.0742,0.0192,9.783,0.0415,0.0017,9.8066,-0.02,-0.004,-0.0499,0,-0.0024,0,267,-11.4,23.4,-30.7,25.29,-0.01,-0.24,3.1,1009.39,39.051,30.445225,-84.30042,130.21,NaN,,2.09,38.709675,130.6,12-Oct,38426,2018-04-16 19:52:41:470
0.0287,0.0024,9.7639,0.0419,0.0011,9.8066,-0.0131,0.0013,-0.0427,-0.0012,0.0012,0.0024,267,-11.5,23.5,-30.6,24.36,-0.01,-0.24,3.1,1009.38,38.888,30.445225,-84.30042,130.21,NaN,,2.09,38.709675,130.6,12-Oct,38526,2018-04-16 19:52:41:570
0.0311,0.0168,9.7567,0.0415,0.001,9.8066,0.0328,-0.0274,-0.0259,0.0012,0,0,267,-11.4,23.6,-30.7,24.36,-0.01,-0.24,3.1,1009.38,38.888,30.445225,-84.30042,130.21,NaN,,2.09,38.709675,130.6,12-Oct,38626,2018-04-16 19:52:41:670
0.0455,0,9.7639,0.0413,7.00E-04,9.8066,0.0018,-0.0031,-0.0427,0.0012,0,0,267,-11.5,23.6,-30.9,24.36,0,-0.24,3.1,1009.38,38.888,30.445225,-84.30042,130.21,NaN,,2.09,38.709675,130.6,12-Oct,38726,2018-04-16 19:52:41:770
0.0215,0.0048,9.7878,0.0411,6.00E-04,9.8066,-0.0195,0.0042,-0.0188,0.0024,0,0,267,-11.3,23.6,-30.9,24.36,0,-0.24,3.1,1009.38,38.464,30.445225,-84.30042,130.21,NaN,,2.09,38.709675,130.6,12-Oct,38826,2018-04-16 19:52:41:870
0.0503,0.012,9.7375,0.0408,-1.00E-04,9.8066,0.0166,0.0024,-0.0667,-0.0024,0,0,267,-11.3,23.7,-31.1,24.37,0,-0.24,3.1,1009.37,38.464,30.445225,-84.30042,130.21,NaN,,2.09,38.709675,130.6,12-Oct,38926,2018-04-16 19:52:41:970
0.0263,-0.012,9.7662,0.0408,-1.00E-04,9.8066,0.0166,0.0024,-0.0667,0.0012,-0.0012,0.0012,267,-11.3,23.7,-31.1,24.37,0,-0.24,3.1,1009.37,38.464,30.445225,-84.30042,130.21,NaN,,2.09,38.709675,130.6,12-Oct,39026,2018-04-16 19:52:42:070
0.0263,-0.0359,9.7615,0.0408,-1.00E-04,9.8066,0.0095,0.0048,-0.0714,0.0024,0.0012,-0.0012,267,-11.3,23.6,-30.9,24.37,0,-0.24,3.1,1009.35,36.959,30.445225,-84.30042,130.21,NaN,,2.09,38.709675,130.6,12-Oct,39126,2018-04-16 19:52:42:170
0.0407,0.0048,9.7782,0.0409,0,9.8066,0.0285,0.0239,-0.0451,0.0012,-0.0012,0,267,-11.3,23.6,-31,24.37,0,-0.24,3.1,1009.35,36.959,30.445225,-84.30042,130.21,NaN,,2.09,38.709675,130.6,12-Oct,39226,2018-04-16 19:52:42:270
0.0742,0.0048,9.783,0.0409,0,9.8066,0.0141,-0.0024,-0.0571,0.0012,-0.0012,0,267,-11.4,23.4,-30.9,25.3,0,-0.24,3.1,1009.34,36.959,30.445225,-84.30042,130.21,NaN,,2.09,38.709675,130.6,12-Oct,39327,2018-04-16 19:52:42:371
0.0215,0,9.7662,0.0415,1.00E-04,9.8066,-0.0103,0.0286,-0.0499,0.0024,0,0.0012,267,-11.5,23.4,-31,25.3,0,-0.24,3.1,1009.34,36.959,30.445225,-84.30042,130.21,NaN,,2.09,38.709675,130.6,12-Sep,39426,2018-04-16 19:52:42:470
0.067,-0.0072,9.7471,0.041,1.00E-04,9.8066,0.0021,-0.0049,-0.0619,0,0,0,267,-11.5,23.4,-30.9,25.29,0,-0.24,3.1,1009.33,36.382,30.445225,-84.30042,130.21,NaN,,2.09,38.709675,130.6,12-Sep,39526,2018-04-16 19:52:42:570
0.0168,-0.0072,9.7686,0.041,1.00E-04,9.8066,0.0021,-0.0049,-0.0619,0,0,0,267,-11.5,23.3,-30.7,25.29,0,-0.24,3.1,1009.33,36.382,30.445225,-84.30042,130.21,NaN,,2.09,38.709675,130.6,12-Sep,39626,2018-04-16 19:52:42:670
0.0503,-0.0096,9.7471,0.0403,4.00E-04,9.8066,0.0028,-0.0171,-0.0523,0,0,0.0012,267,-11.4,23.3,-30.9,25.3,0,-0.24,3.1,1009.32,36.382,30.445225,-84.30042,130.21,NaN,,2.09,38.709675,130.6,12-Sep,39726,2018-04-16 19:52:42:770
0.0048,-0.0072,9.7662,0.0406,4.00E-04,9.8066,-0.0358,-0.0076,-0.0403,-0.0012,0.0012,0.0012,267,-11.4,23.3,-30.9,25.3,0,-0.24,3.1,1009.32,36.929,30.445225,-84.30042,130.21,NaN,,2.09,38.709675,130.6,12-Sep,39827,2018-04-16 19:52:42:871
0.0742,0.0096,9.7591,0.0405,3.00E-04,9.8066,0.0337,0.0092,-0.026,0.0024,0,0,267,-11.3,23.4,-30.9,25.3,0,-0.24,3.1,1009.32,36.929,30.445225,-84.30042,130.21,NaN,,2.09,38.709675,130.6,12-Sep,39926,2018-04-16 19:52:42:970
0.012,-0.012,9.7878,0.0407,1.00E-04,9.8066,0.0167,0.0166,-0.0331,0,0,0,267,-10.8,23.5,-31.4,24.37,0,-0.24,3.1,1009.32,36.929,30.445225,-84.30042,130.21,NaN,,2.09,38.709675,130.6,12-Sep,40026,2018-04-16 19:52:43:070
0.067,-0.0215,9.7758,0.0413,-2.00E-04,9.8066,-0.015,0.0337,-0.0331,0,0,0,267,-10.1,23.5,-32.3,22.35,0,-0.24,3.1,1009.31,37.682,30.445225,-84.30042,130.21,NaN,,2.09,38.709675,130.6,12-Sep,40126,2018-04-16 19:52:43:170
0.0311,0.0287,9.8046,0.0413,-2.00E-04,9.8066,-0.015,0.0337,-0.0331,0,0,0,267,-9.8,23.5,-33.3,22.35,0,-0.24,3.1,1009.31,37.682,30.445225,-84.30042,130.21,NaN,,2.09,38.709675,130.6,12-Sep,40226,2018-04-16 19:52:43:270
0.0239,0.0072,9.7902,0.0413,0,9.8066,0.0066,-0.0048,-0.0403,0,-0.0012,0.0012,267,-10.4,23.5,-32.4,22.35,0,-0.24,3.1,1009.32,37.682,30.445225,-84.30042,130.21,NaN,,2.09,38.709675,130.6,12-Sep,40327,2018-04-16 19:52:43:371
0.0551,0.0072,9.7471,0.041,-1.00E-04,9.8066,0.0309,0.0073,-0.0643,-0.0012,0,0,267,-11.2,23.4,-31.3,25.3,0,-0.24,3.1,1009.32,37.769,30.445225,-84.30042,130.21,NaN,,2.09,38.709675,130.6,12-Sep,40426,2018-04-16 19:52:43:470
0.0455,0.0072,9.7279,0.041,-1.00E-04,9.8066,0.0117,0.0217,-0.0643,0,-0.0012,-0.0012,267,-11.2,23.4,-31.3,25.3,0,-0.24,3.1,1009.32,37.769,30.445225,-84.30042,130.21,NaN,,2.09,38.709675,130.6,12-Sep,40527,2018-04-16 19:52:43:571
0.0407,0.0072,9.7375,0.041,-1.00E-04,9.8066,0.0141,0.0073,-0.0427,0.0012,-0.0012,0,267,-11.6,23.2,-30.8,27.3,0,-0.24,3.1,1009.32,37.769,30.445225,-84.30042,130.21,NaN,,2.09,38.709675,130.6,12-Sep,40626,2018-04-16 19:52:43:670
0.0383,0.0096,9.7471,0.041,0,9.8066,-0.0027,0.0096,-0.0595,0.0012,0,0,267,-11.5,23.2,-31,25.3,0,-0.24,3.1,1009.32,37.769,30.445225,-84.30042,130.21,NaN,,2.09,38.709675,130.6,12-Sep,40727,2018-04-16 19:52:43:771
0.0575,0.0048,9.7567,0.041,0,9.8066,-0.0027,0.0096,-0.0595,0.0012,0,0,267,-11.4,23.3,-31,25.3,0,-0.24,3.1,1009.32,36.5,30.445225,-84.30042,130.21,NaN,,2.09,38.709675,130.6,12-Sep,40827,2018-04-16 19:52:43:871
0.0239,-0.0144,9.7567,0.0411,1.00E-04,9.8066,0.0092,-1.00E-04,-0.0547,-0.0012,0,0.0012,267,-11.3,23.5,-30.8,24.37,0,-0.24,3.1,1009.33,36.5,30.445225,-84.30042,130.21,NaN,,2.09,38.709675,130.6,12-Sep,40926,2018-04-16 19:52:43:970
0.0455,-0.0048,9.7567,0.0409,0,9.8066,0.007,0.0095,-0.0667,0.0012,0,0.0012,267,-11.2,23.5,-30.6,24.37,0,-0.24,3.1,1009.33,36.5,30.445225,-84.30042,130.21,NaN,,2.09,38.709675,130.6,12-Sep,41026,2018-04-16 19:52:44:070
0.0215,0.0048,9.7878,0.0409,0,9.8066,-0.0097,0.0047,-0.0571,0.0012,0,0,267,-11.2,23.5,-30.6,24.37,0,-0.24,3.1,1009.33,40.128,30.445225,-84.30042,130.21,NaN,,2.09,38.709675,130.6,12-Sep,41126,2018-04-16 19:52:44:170
0.0335,-0.0024,9.7806,0.0409,0,9.8066,0.0118,0.0047,-0.0547,0.0012,0,0.0012,267,-11.3,23.5,-30.9,24.37,0,-0.24,3.1,1009.33,40.128,30.445225,-84.30042,130.21,NaN,,2.09,38.709675,130.6,12-Sep,41226,2018-04-16 19:52:44:270
0.0383,-0.0072,9.7423,0.0402,-1.00E-04,9.8066,-0.0019,-0.007,-0.0643,-0.0012,0.0012,0,267,-11.3,23.5,-31.2,24.37,0,-0.24,3.1,1009.33,40.128,30.445225,-84.30042,130.21,NaN,,2.09,38.709675,130.6,12-Sep,41326,2018-04-16 19:52:44:370
0.0263,0.0024,9.7686,0.0402,-1.00E-04,9.8066,-0.0019,-0.007,-0.0643,-0.0012,0.0012,0,267,-11.5,23.4,-31,25.3,0,-0.24,3.1,1009.33,40.368,30.445225,-84.30042,130.21,NaN,,2.09,38.709675,130.6,12-Sep,41426,2018-04-16 19:52:44:470
0.0479,-0.0072,9.7519,0.0402,-1.00E-04,9.8066,-0.0235,0.0025,-0.0212,0,-0.0012,0.0012,267,-11.3,23.4,-31,25.3,0,-0.24,3.1,1009.34,40.368,30.445225,-84.30042,130.21,NaN,,2.09,38.709675,130.6,12-Sep,41527,2018-04-16 19:52:44:571
0.0239,0.0072,9.7615,0.04,-1.00E-04,9.8066,7.00E-04,-0.0047,-0.0523,0,0,-0.0012,267,-11.3,23.5,-31.1,24.37,0,-0.23,3.1,1009.34,40.368,30.445225,-84.30042,130.21,NaN,,2.09,38.709675,130.6,12-Sep,41627,2018-04-16 19:52:44:671
0.0455,-0.0024,9.7519,0.04,-1.00E-04,9.8066,0.0055,-0.0023,-0.0547,-0.0012,0,0.0012,267,-11.3,23.5,-31.1,24.37,0,-0.23,3.1,1009.34,40.6,30.445225,-84.30042,130.21,NaN,,2.09,38.709675,130.6,12-Sep,41726,2018-04-16 19:52:44:770
0.0407,-0.0168,9.7686,0.04,-1.00E-04,9.8066,-0.0137,-0.0023,-0.0379,-0.0012,0.0012,0.0012,267,-11.5,23.5,-31.3,24.37,0,-0.23,3.1,1009.34,40.6,30.445225,-84.30042,130.21,NaN,,2.09,38.709675,130.6,12-Sep,41826,2018-04-16 19:52:44:870
0.0551,-0.0024,9.7519,0.04,-1.00E-04,9.8066,0.0055,0.0049,-0.0691,0.0024,-0.0012,0.0024,267,-11.6,23.5,-30.9,26.32,0,-0.23,3.1,1009.34,40.6,30.445225,-84.30042,130.21,NaN,,2.09,38.709675,130.6,12-Sep,41926,2018-04-16 19:52:44:970
0.0407,-0.0048,9.7639,0.04,-1.00E-04,9.8066,0.0055,0.0049,-0.0691,0.0024,-0.0012,0.0024,267,-11.5,23.5,-30.8,24.37,0,-0.23,3.1,1009.34,40.6,30.445225,-84.30042,130.21,NaN,,2.09,38.709675,130.6,12-Sep,42026,2018-04-16 19:52:45:070
0.0599,0.012,9.7423,0.04,-1.00E-04,9.8066,-0.0208,-0.019,-0.0284,0,0,0,267,-11.3,23.5,-30.7,24.37,0,-0.23,3.1,1009.34,39.208,30.445225,-84.30042,130.21,NaN,,2.09,38.709675,130.6,12-Sep,42127,2018-04-16 19:52:45:171
0.0192,-0.0096,9.7639,0.04,-1.00E-04,9.8066,-0.016,-0.0166,-0.0451,0.0012,-0.0012,0.0012,267,-11.3,23.5,-30.6,24.37,0,-0.23,3.1,1009.34,39.208,30.445225,-84.30042,130.21,NaN,,2.09,38.709675,130.6,12-Sep,42226,2018-04-16 19:52:45:270
0.0503,0.0024,9.7567,0.0398,-3.00E-04,9.8066,-0.0159,-0.0117,-0.0691,0.0024,0,0,267,-11.3,23.5,-30.6,24.37,0,-0.23,3.1,1009.35,39.208,30.445225,-84.30042,130.21,NaN,,2.09,38.709675,130.6,12-Sep,42326,2018-04-16 19:52:45:370
0.0479,0.0287,9.7232,0.0403,2.00E-04,9.8066,-0.0211,-0.005,-0.0475,-0.0012,-0.0024,0.0012,267,-11.3,23.5,-30.5,24.38,0,-0.23,3.1,1009.35,38.817,30.445225,-84.30042,130.21,NaN,,2.09,38.709675,130.6,12-Oct,42426,2018-04-16 19:52:45:470
0.0383,0.012,9.7495,0.0403,2.00E-04,9.8066,-0.0019,0.0118,-0.0571,0.0012,-0.0012,0.0012,267,-11.3,23.5,-30.8,24.38,0,-0.23,3.1,1009.35,38.817,30.445225,-84.30042,130.21,NaN,,2.09,38.709675,130.6,12-Oct,42527,2018-04-16 19:52:45:571
0.0335,-0.0048,9.7662,0.0403,2.00E-04,9.8066,-0.0019,0.0118,-0.0571,0.0012,-0.0012,0.0012,267,-11.2,23.5,-31.2,24.37,0,-0.24,3.1,1009.35,38.817,30.445225,-84.30042,130.21,NaN,,2.09,38.709675,130.6,12-Oct,42626,2018-04-16 19:52:45:670
0.0192,-0.0024,9.7591,0.0403,2.00E-04,9.8066,-0.0067,-0.0074,-0.0571,-0.0012,0,0.0012,267,-11.3,23.5,-31.1,24.37,0,-0.24,3.1,1009.34,39.212,30.445225,-84.30042,130.21,NaN,,2.09,38.709675,130.6,12-Oct,42727,2018-04-16 19:52:45:771
0.0479,0.0048,9.7567,0.0402,1.00E-04,9.8066,0.0077,0.0071,-0.0691,0.0037,-0.0012,0.0012,267,-11.3,23.5,-30.7,24.37,0,-0.23,3.1,1009.34,39.212,30.445225,-84.30042,130.21,NaN,,2.09,38.709675,130.6,12-Oct,42826,2018-04-16 19:52:45:870
0.0168,-0.0168,9.7806,0.0403,1.00E-04,9.8066,-0.0044,0.0047,-0.0547,0.0012,0,0.0012,267,-11.3,23.5,-30.7,24.37,0,-0.23,3.1,1009.34,39.212,30.445225,-84.30042,130.21,NaN,,2.09,38.709675,130.6,12-Oct,42926,2018-04-16 19:52:45:970
0.0718,0,9.7615,0.0403,1.00E-04,9.8066,0.0316,-1.00E-04,-0.0451,0,-0.0012,0.0024,267,-11.3,23.4,-30.7,25.3,0,-0.24,3.1,1009.34,45.988,30.445225,-84.30042,130.21,NaN,,2.09,38.709675,130.6,12-Oct,43026,2018-04-16 19:52:46:070
0.0239,0,9.783,0.0407,2.00E-04,9.8066,-0.0119,-0.005,-0.0379,0.0012,0,0.0012,267,-11.3,23.4,-30.8,25.3,0,-0.24,3.1,1009.34,45.988,30.445225,-84.30042,130.21,NaN,,2.09,38.709675,130.6,12-Oct,43127,2018-04-16 19:52:46:171
0.067,0.0192,9.7567,0.0407,2.00E-04,9.8066,-0.0119,-0.005,-0.0379,0.0012,0,0.0012,267,-11.3,23.4,-30.5,25.31,0,-0.24,3.1,1009.34,45.988,30.445225,-84.30042,130.21,NaN,,2.09,38.709675,130.6,12-Oct,43226,2018-04-16 19:52:46:270
0.0551,0.0144,9.7686,0.0402,3.00E-04,9.8066,-0.0211,-0.0122,-0.0355,0.0024,0,0.0012,267,-11.3,23.4,-30.4,25.31,0,-0.24,3.1,1009.36,45.988,30.445225,-84.30042,130.21,NaN,,2.09,38.709675,130.6,12-Oct,43326,2018-04-16 19:52:46:370
0.0623,0.0144,9.7519,0.0399,0,9.8066,0.0176,0.0048,-0.0403,-0.0012,0.0012,0.0012,267,-11.4,23.3,-30.7,25.3,0,-0.23,3.1,1009.36,46.435,30.445225,-84.30042,130.21,NaN,,2.09,38.709675,130.6,13-Sep,43426,2018-04-16 19:52:46:470
0.0479,-0.0024,9.7639,0.04,1.00E-04,9.8066,-0.0184,-0.0096,-0.0379,0,0.0012,-0.0012,267,-11.4,23.3,-30.7,25.3,0,-0.23,3.1,1009.34,46.435,30.445225,-84.30042,130.21,NaN,,2.09,38.709675,130.6,13-Sep,43526,2018-04-16 19:52:46:570
0.0287,0.0479,9.7208,0.0399,-1.00E-04,9.8066,-0.0112,0.0479,-0.0858,0,0,-0.0012,267,-11.5,23.3,-30.8,25.3,0,-0.23,3.1,1009.34,46.435,30.445225,-84.30042,130.21,NaN,,2.09,38.709675,130.6,13-Sep,43626,2018-04-16 19:52:46:670
0.0503,-0.0096,9.7662,0.0399,2.00E-04,9.8066,0.0128,0.0094,-0.0714,0.0024,0.0012,0.0012,267,-11.5,23.3,-30.7,25.3,0,-0.23,3.1,1009.34,38.225,30.445225,-84.30042,130.21,NaN,,2.09,38.709675,130.6,13-Sep,43726,2018-04-16 19:52:46:770
0.0359,-0.0048,9.771,0.0399,2.00E-04,9.8066,0.0128,0.0094,-0.0714,0.0024,0.0012,0.0012,267,-11.5,23.3,-30.6,25.3,0,-0.23,3.1,1009.34,38.225,30.445225,-84.30042,130.21,NaN,,2.09,38.709675,130.6,13-Sep,43826,2018-04-16 19:52:46:870
0.0623,0.0168,9.7351,0.0401,3.00E-04,9.8066,-0.009,-3.00E-04,-0.0571,0.0049,-0.0012,0,267,-11.4,23.3,-30.6,25.3,0,-0.23,3.1,1009.34,38.225,30.445225,-84.30042,130.21,NaN,,2.09,38.709675,130.6,13-Sep,43926,2018-04-16 19:52:46:970
0.0192,-0.0168,9.7758,0.0406,6.00E-04,9.8066,-0.0095,-6.00E-04,-0.0499,0,0.0012,0.0012,267,-11.4,23.3,-30.8,25.3,0,-0.24,3.1,1009.34,37.044,30.445225,-84.30042,130.21,NaN,,2.09,38.709675,130.6,13-Sep,44026,2018-04-16 19:52:47:070
0.0455,0.0072,9.7591,0.0407,7.00E-04,9.8066,0.0048,0.0065,-0.0475,0.0012,0.0012,0,267,-11.4,23.3,-30.8,25.3,0,-0.24,3.1,1009.35,37.044,30.445225,-84.30042,130.21,NaN,,2.09,38.709675,130.6,13-Sep,44126,2018-04-16 19:52:47:170
0.0335,0.0072,9.7686,0.0407,7.00E-04,9.8066,-0.0168,-0.0127,-0.0523,0,0,0.0012,267,-11.5,23.4,-30.8,25.3,0,-0.24,3.1,1009.35,37.044,30.445225,-84.30042,130.21,NaN,,2.09,38.709675,130.6,13-Sep,44226,2018-04-16 19:52:47:270
0.0718,0.0048,9.7471,0.0408,6.00E-04,9.8066,-0.0217,-0.027,-0.0307,0,0,0,267,-11.4,23.4,-30.8,25.3,0,-0.24,3.1,1009.35,39.648,30.445225,-84.30042,130.21,NaN,,2.09,38.709675,130.6,13-Sep,44326,2018-04-16 19:52:47:370
0.0575,0.0192,9.7567,0.0408,6.00E-04,9.8066,-0.0217,-0.027,-0.0307,0,0,0,267,-11.5,23.3,-30.9,25.3,0,-0.24,3.1,1009.35,39.648,30.445225,-84.30042,130.21,NaN,,2.09,38.709675,130.6,13-Oct,44427,2018-04-16 19:52:47:471
0.0527,0,9.7543,0.0406,3.00E-04,9.8066,0.0121,-3.00E-04,-0.0523,0,0.0012,0,267,-11.6,23.3,-31.1,27.3,0,-0.24,3.1,1009.33,39.648,30.445225,-84.30042,130.21,NaN,,2.09,38.709675,130.6,13-Oct,44526,2018-04-16 19:52:47:570
0.0599,0.0239,9.7375,0.0406,3.00E-04,9.8066,-0.0166,-0.0051,-0.0523,0.0012,0.0012,0.0012,267,-11.7,23.2,-30.9,27.3,0,-0.24,3.1,1009.33,39.648,30.445225,-84.30042,130.21,NaN,,2.09,38.709675,130.6,13-Oct,44626,2018-04-16 19:52:47:670
0.0359,-0.0072,9.7639,0.0406,3.00E-04,9.8066,-0.0047,-0.0171,-0.0499,-0.0024,0.0012,0,267,-11.7,23.2,-30.9,27.3,0,-0.24,3.1,1009.33,37.107,30.445225,-84.30042,130.21,NaN,,2.09,38.709675,130.6,13-Oct,44726,2018-04-16 19:52:47:770
0.0335,-0.0168,9.7567,0.0406,3.00E-04,9.8066,0.0073,0.0116,-0.0691,0,0,0,267,-11.6,23.3,-30.8,27.3,0,-0.24,3.1,1009.33,37.107,30.445225,-84.30042,130.21,NaN,,2.09,38.709675,130.6,13-Oct,44827,2018-04-16 19:52:47:871
0.0431,0.0072,9.7327,0.0407,5.00E-04,9.8066,0.0024,0.0066,-0.0738,-0.0012,-0.0012,0,267,-11.4,23.4,-31,25.3,0,-0.24,3.1,1009.34,37.107,30.445225,-84.30042,130.21,NaN,,2.09,38.709675,130.6,13-Oct,44926,2018-04-16 19:52:47:970
0.0431,0.0287,9.7351,0.0407,5.00E-04,9.8066,0.0024,0.0066,-0.0738,-0.0012,-0.0012,0,267,-11.3,23.4,-31.3,25.3,0,-0.24,3.1,1009.34,39.952,30.445225,-84.30042,130.21,NaN,,2.09,38.709675,130.6,13-Oct,45027,2018-04-16 19:52:48:071
0.0527,-0.0024,9.7567,0.0413,0.0013,9.8066,-0.0221,-0.0181,-0.0451,0,0,0,267,-11.3,23.4,-31.4,25.29,-0.01,-0.24,3.1,1009.35,39.952,30.445225,-84.30042,130.21,NaN,,2.09,38.709675,130.6,13-Oct,45127,2018-04-16 19:52:48:171
0.0383,-0.0048,9.7471,0.0413,0.0013,9.8066,-0.0077,-0.0085,-0.0283,0,0,0,267,-11.4,23.3,-31.1,25.29,-0.01,-0.24,3.1,1009.35,39.952,30.445225,-84.30042,130.21,NaN,,2.09,38.709675,130.6,13-Oct,45226,2018-04-16 19:52:48:270
0.0527,0.0072,9.7543,0.0413,0.0013,9.8066,0.0114,0.0059,-0.0523,0,-0.0024,0.0024,267,-11.4,23.3,-31.1,25.29,-0.01,-0.24,3.1,1009.34,37.536,30.445225,-84.30042,130.21,NaN,,2.09,38.709675,130.6,13-Oct,45326,2018-04-16 19:52:48:370
0.0335,-0.0024,9.7543,0.0413,0.0013,9.8066,0.0018,-0.0109,-0.0427,0,0,0.0024,267,-11.4,23.3,-31,25.29,-0.01,-0.24,3.1,1009.34,37.536,30.445225,-84.30042,130.21,NaN,,2.09,38.709675,130.6,13-Oct,45426,2018-04-16 19:52:48:470
0.0239,-0.012,9.7639,0.0413,0.0013,9.8066,0.0138,-0.0133,-0.0571,-0.0012,0,0.0012,267,-11.4,23.3,-31.1,25.29,-0.01,-0.24,3.1,1009.34,37.536,30.445225,-84.30042,130.21,NaN,,2.09,38.709675,130.6,13-Oct,45526,2018-04-16 19:52:48:570
0.0359,0,9.7782,0.0413,0.0013,9.8066,0.0138,-0.0133,-0.0571,-0.0012,0,0.0012,267,-11.4,23.4,-31,25.29,-0.01,-0.24,3.1,1009.34,47.665,30.445225,-84.30042,130.21,NaN,,2.09,38.709675,130.6,13-Oct,45626,2018-04-16 19:52:48:670
0.0527,0.0168,9.7351,0.0413,0.0013,9.8066,-0.0125,-0.0013,-0.0403,0,0.0012,0,267,-11.5,23.3,-31,25.29,-0.01,-0.24,3.1,1009.35,47.665,30.445225,-84.30042,130.21,NaN,,2.09,38.709675,130.6,13-Oct,45726,2018-04-16 19:52:48:770
0.0551,0.0192,9.7543,0.0413,0.0013,9.8066,0.0138,0.0178,-0.0523,0,-0.0012,0.0012,267,-11.5,23.3,-31.1,25.29,-0.01,-0.24,3.1,1009.35,47.665,30.445225,-84.30042,130.21,NaN,,2.09,38.709675,130.6,13-Oct,45826,2018-04-16 19:52:48:870
0.0359,0.0024,9.7399,0.0413,0.0013,9.8066,0.0113,0.0178,-0.0738,0,0.0012,0.0024,267,-11.5,23.3,-31.1,25.29,-0.01,-0.24,3.1,1009.35,47.665,30.445225,-84.30042,130.21,NaN,,2.09,38.709675,130.6,13-Oct,45926,2018-04-16 19:52:48:970
0.0287,-0.0263,9.7591,0.0413,0.0013,9.8066,-0.027,-0.0229,-0.0283,0,0,0,267,-11.6,23.2,-31,27.29,-0.01,-0.24,3.1,1009.35,42.28,30.445225,-84.30042,130.21,NaN,,2.09,38.709675,130.6,13-Oct,46026,2018-04-16 19:52:49:070
0.0144,-0.012,9.7615,0.0412,0.0012,9.8066,-5.00E-04,-0.018,-0.0475,0.0049,0,0.0037,267,-11.5,23.3,-31,25.29,-0.01,-0.24,3.1,1009.35,42.28,30.445225,-84.30042,130.21,NaN,,2.09,38.709675,130.6,13-Oct,46127,2018-04-16 19:52:49:171
0.0407,-0.0096,9.7447,0.0412,0.0012,9.8066,-5.00E-04,-0.018,-0.0475,0.0049,0,0.0037,267,-11.4,23.4,-30.9,25.29,-0.01,-0.24,3.1,1009.35,42.28,30.445225,-84.30042,130.21,NaN,,2.09,38.709675,130.6,13-Oct,46227,2018-04-16 19:52:49:271
0.0383,-0.0168,9.7543,0.0412,0.0012,9.8066,-0.0029,-0.018,-0.0523,0.0024,0,0,267,-11.3,23.4,-31,25.29,-0.01,-0.24,3.1,1009.35,42.335,30.445225,-84.30042,130.21,NaN,,2.09,38.709675,130.6,13-Oct,46326,2018-04-16 19:52:49:370
0.0311,-0.0024,9.7686,0.0412,0.0012,9.8066,-5.00E-04,-0.0036,-0.0595,0,0.0024,0.0024,267,-11.4,23.3,-30.9,25.29,-0.01,-0.24,3.1,1009.35,42.335,30.445225,-84.30042,130.21,NaN,,2.09,38.709675,130.6,12-Oct,46426,2018-04-16 19:52:49:470
0.0335,-0.0263,9.7662,0.0413,0.0013,9.8066,0.0042,-0.0276,-0.0475,0,0.0024,0.0024,267,-11.4,23.3,-30.9,25.29,-0.01,-0.24,3.1,1009.36,42.335,30.445225,-84.30042,130.21,NaN,,2.09,38.709675,130.6,12-Oct,46526,2018-04-16 19:52:49:570
0.0192,-0.0096,9.771,0.0409,0.0012,9.8066,-0.0218,-0.006,-0.0475,0.0049,0,0.0012,267,-11.5,23.2,-31.2,25.29,-0.01,-0.24,3.1,1009.36,42.345,30.445225,-84.30042,130.21,NaN,,2.09,38.709675,130.6,12-Oct,46626,2018-04-16 19:52:49:670
0.0192,-0.0144,9.7662,0.0402,0.0011,9.8066,0.0173,-0.0298,-0.0571,0.0037,-0.0012,0.0024,267,-11.4,23.2,-31.1,25.29,-0.01,-0.24,3.1,1009.36,42.345,30.445225,-84.30042,130.21,NaN,,2.09,38.709675,130.6,12-Oct,46726,2018-04-16 19:52:49:770
0.0311,-0.0096,9.7734,0.0402,0.0011,9.8066,0.0173,-0.0298,-0.0571,0.0012,0.0012,0.0012,267,-11.3,23.2,-31.1,25.3,-0.01,-0.23,3.1,1009.36,42.345,30.445225,-84.30042,130.21,NaN,,2.09,38.709675,130.6,12-Oct,46827,2018-04-16 19:52:49:871
0.0335,0,9.7615,0.0402,0.0011,9.8066,-0.0066,-0.0011,-0.0451,0,0.0012,0.0012,267,-11.4,23.2,-31.1,25.3,-0.01,-0.23,3.1,1009.37,39.507,30.445225,-84.30042,130.21,NaN,,2.09,38.709675,130.6,12-Oct,46926,2018-04-16 19:52:49:970
0.0551,0.0192,9.7327,0.0402,0.0011,9.8066,0.0077,-0.0011,-0.0619,0,0,0,267,-11.5,23.2,-30.9,25.3,-0.01,-0.23,3.1,1009.37,39.507,30.445225,-84.30042,130.21,NaN,,2.09,38.709675,130.6,12-Oct,47026,2018-04-16 19:52:50:070
0.0383,0.0072,9.7567,0.0402,0.0011,9.8066,0.0149,-0.0011,-0.0499,0,0,0,267,-11.6,23.2,-30.8,27.3,-0.01,-0.23,3.1,1009.37,39.507,30.445225,-84.30042,130.21,NaN,,2.09,38.709675,130.6,12-Oct,47126,2018-04-16 19:52:50:170
0.0383,-0.0287,9.7758,0.0398,0.001,9.8066,-0.0015,-0.0297,-0.0307,-0.0024,0.0012,0,267,-11.6,23.2,-30.8,27.3,-0.01,-0.23,3.1,1009.37,39.507,30.445225,-84.30042,130.21,NaN,,2.09,38.709675,130.6,12-Oct,47226,2018-04-16 19:52:50:270
0.0239,-0.0024,9.7734,0.0397,9.00E-04,9.8066,0.0058,0.0087,-0.0499,-0.0037,0,0.0012,267,-11.7,23.1,-31.1,27.3,-0.01,-0.23,3.1,1009.39,39.018,30.445225,-84.30042,130.21,NaN,,2.09,38.709675,130.6,12-Oct,47326,2018-04-16 19:52:50:370
0.0311,-0.0024,9.7591,0.0397,9.00E-04,9.8066,0.0058,0.0087,-0.0499,0.0024,0.0012,0.0024,267,-11.7,23,-31,27.3,-0.01,-0.23,3.1,1009.39,39.018,30.445225,-84.30042,130.21,NaN,,2.09,38.709675,130.6,13-Sep,47425,2018-04-16 19:52:50:469
0.0694,-0.0048,9.7447,0.0397,9.00E-04,9.8066,-0.0038,-0.0128,-0.0499,-0.0012,-0.0012,0.0012,267,-11.5,23.1,-31.4,25.3,-0.01,-0.23,3.1,1009.39,39.018,30.445225,-84.30042,130.21,NaN,,2.09,38.709675,130.6,13-Sep,47526,2018-04-16 19:52:50:570
0.0263,-0.0048,9.7615,0.0398,8.00E-04,9.8066,-0.0159,-8.00E-04,-0.0499,0.0012,0,0.0012,267,-11.6,23.2,-31.3,27.3,0,-0.23,3.1,1009.39,38.486,30.445225,-84.30042,130.21,NaN,,2.09,38.709675,130.6,13-Sep,47626,2018-04-16 19:52:50:670
0.0383,0.0383,9.7375,0.0396,4.00E-04,9.8066,-0.0013,0.0379,-0.0691,0.0012,0,0.0012,267,-11.5,23.2,-31.3,27.3,0,-0.23,3.1,1009.39,38.486,30.445225,-84.30042,130.21,NaN,,2.09,38.709675,130.6,13-Sep,47727,2018-04-16 19:52:50:771
0.0144,0,9.7854,0.0398,7.00E-04,9.8066,0.0128,0.0065,-0.0355,-0.0012,0,0.0024,267,-11.5,23.3,-31.3,25.3,0,-0.23,3.1,1009.39,38.486,30.445225,-84.30042,130.21,NaN,,2.09,38.709675,130.6,13-Sep,47827,2018-04-16 19:52:50:871
0.0311,0.0024,9.7662,0.0398,7.00E-04,9.8066,-0.0159,-0.0103,-0.0355,0.0012,0.0012,0,267,-11.5,23.2,-31.4,25.3,0,-0.23,3.1,1009.4,41.127,30.445225,-84.30042,130.21,NaN,,2.09,38.709675,130.6,13-Sep,47926,2018-04-16 19:52:50:970
0.0551,0.0144,9.7447,0.0398,7.00E-04,9.8066,-0.0159,-0.0103,-0.0355,0,0,0.0024,267,-11.5,23.2,-31.4,25.3,0,-0.23,3.1,1009.4,41.127,30.445225,-84.30042,130.21,NaN,,2.09,38.709675,130.6,13-Sep,48027,2018-04-16 19:52:51:071
0.067,0.0168,9.7495,0.0398,7.00E-04,9.8066,0.0128,-0.0198,-0.0619,0.0024,-0.0012,0.0024,267,-11.5,23.2,-31.3,25.3,0,-0.23,3.1,1009.39,41.127,30.445225,-84.30042,130.21,NaN,,2.09,38.709675,130.6,13-Sep,48126,2018-04-16 19:52:51:170
0.0431,0.0096,9.7399,0.0401,7.00E-04,9.8066,-0.0209,-0.0031,-0.0307,0.0012,0,0.0012,267,-11.5,23.2,-31,25.3,0,-0.23,3.1,1009.39,38.686,30.445225,-84.30042,130.21,NaN,,2.09,38.709675,130.6,13-Sep,48226,2018-04-16 19:52:51:270
0.067,0.0239,9.7591,0.0401,7.00E-04,9.8066,0.027,0.0232,-0.0475,0.0012,0,0.0012,267,-11.5,23.2,-30.9,25.3,0,-0.23,3.1,1009.37,38.686,30.445225,-84.30042,130.21,NaN,,2.09,38.709675,130.6,13-Sep,48326,2018-04-16 19:52:51:370
0.0359,-0.0072,9.7495,0.0404,0.0012,9.8066,0.005,-0.0083,-0.0667,-0.0012,0.0024,0.0012,267,-11.5,23.2,-30.7,25.3,0,-0.23,3.1,1009.37,38.686,30.445225,-84.30042,130.21,NaN,,2.09,38.709675,130.6,13-Sep,48426,2018-04-16 19:52:51:470
0.0287,-0.0239,9.7639,0.0412,0.0017,9.8066,0.021,-0.0017,-0.0499,0,-0.0012,0.0012,267,-11.5,23.2,-30.7,25.3,0,-0.23,3.1,1009.36,38.686,30.445225,-84.30042,130.21,NaN,,2.09,38.709675,130.6,13-Aug,48526,2018-04-16 19:52:51:570
0.0551,0.0192,9.7279,0.0412,0.0017,9.8066,0.021,-0.0017,-0.0499,0,-0.0012,0.0012,267,-11.5,23.2,-30.7,25.3,0,-0.23,3.1,1009.36,42.353,30.445225,-84.30042,130.21,NaN,,2.09,38.709675,130.6,13-Aug,48626,2018-04-16 19:52:51:670
0.067,0.0359,9.7615,0.0414,0.0018,9.8066,-0.0102,-0.0114,-0.0379,0.0037,0,0.0012,267,-11.6,23.2,-30.7,27.29,-0.01,-0.24,3.1,1009.34,42.353,30.445225,-84.30042,130.21,NaN,,2.09,38.709675,130.6,13-Aug,48726,2018-04-16 19:52:51:770
0.0623,0.0144,9.7471,0.0414,0.0018,9.8066,0.0209,0.0125,-0.0595,-0.0012,0,0.0012,267,-11.7,23.3,-31,27.29,-0.01,-0.24,3.1,1009.34,42.353,30.445225,-84.30042,130.21,NaN,,2.09,38.709675,130.6,13-Aug,48826,2018-04-16 19:52:51:870
0.0599,0.0215,9.7447,0.0417,0.0017,9.8066,0.0013,0.0366,-0.0499,-0.0012,0,0.0012,267,-11.4,23.3,-31.1,25.29,-0.01,-0.24,3.1,1009.33,41.714,30.445225,-84.30042,130.21,NaN,,2.09,38.709675,130.6,13-Aug,48927,2018-04-16 19:52:51:971
0.0503,0.0024,9.7399,0.0424,0.0023,9.8066,0.0031,0.0288,-0.0619,-0.0012,0,0.0012,267,-11.4,23.1,-31.5,25.28,-0.01,-0.25,3.1,1009.33,41.714,30.445225,-84.30042,130.21,NaN,,2.09,38.709675,130.6,13-Aug,49026,2018-04-16 19:52:52:070
0.0383,0.012,9.7471,0.0425,0.0027,9.8066,-0.0042,0.0093,-0.0595,-0.0012,-0.0012,0.0012,267,-11.3,23.2,-31.2,25.28,-0.02,-0.25,3.1,1009.34,41.714,30.445225,-84.30042,130.21,NaN,,2.09,38.709675,130.6,13-Aug,49126,2018-04-16 19:52:52:170
0.0575,-0.0048,9.7639,0.0425,0.0027,9.8066,-0.0042,0.0093,-0.0595,-0.0012,0,0.0012,267,-11.3,23.2,-31.2,25.28,-0.02,-0.25,3.1,1009.34,41.962,30.445225,-84.30042,130.21,NaN,,2.09,38.709675,130.6,13-Aug,49227,2018-04-16 19:52:52:271
0.0431,0.0048,9.7567,0.0425,0.0027,9.8066,0.0054,0.0045,-0.0595,-0.0012,-0.0012,0,267,-11.3,23.2,-30.7,25.28,-0.02,-0.25,3.1,1009.34,41.962,30.445225,-84.30042,130.21,NaN,,2.09,38.709675,130.6,13-Aug,49326,2018-04-16 19:52:52:370
0.0335,0.0024,9.771,0.0419,0.0024,9.8066,0.0108,0.0071,-0.0667,0.0012,0.0012,0.0012,267,-11.2,23.2,-30.6,25.28,-0.01,-0.24,3.1,1009.34,41.962,30.445225,-84.30042,130.21,NaN,,2.09,38.709675,130.6,13-Aug,49426,2018-04-16 19:52:52:470
0.0144,-0.0072,9.7734,0.0419,0.0024,9.8066,-0.0012,-0.0096,-0.0403,0.0012,0.0012,0.0012,267,-11.3,23.3,-30.7,25.28,-0.01,-0.24,3.1,1009.35,38.629,30.445225,-84.30042,130.21,NaN,,2.09,38.709675,130.6,13-Aug,49526,2018-04-16 19:52:52:570
0.0527,-0.0215,9.7495,0.0419,0.0024,9.8066,-0.006,-0.0048,-0.0379,0,-0.0024,0.0012,267,-11.4,23.3,-31.1,25.28,-0.01,-0.24,3.1,1009.35,38.629,30.445225,-84.30042,130.21,NaN,,2.09,38.709675,130.6,13-Aug,49627,2018-04-16 19:52:52:671
0.0407,0.0168,9.7662,0.0419,0.0024,9.8066,-0.0108,-0.0096,-0.0331,-0.0037,-0.0012,0.0012,267,-11.3,23.4,-31.1,25.28,-0.01,-0.24,3.1,1009.35,38.629,30.445225,-84.30042,130.21,NaN,,2.09,38.709675,130.6,13-Aug,49726,2018-04-16 19:52:52:770
0.0335,0,9.7447,0.0419,0.0024,9.8066,-0.0108,-0.0096,-0.0331,-0.0012,0.0012,0.0012,267,-11.3,23.2,-31,25.28,-0.01,-0.24,3.1,1009.35,38.629,30.445225,-84.30042,130.21,NaN,,2.09,38.709675,130.6,13-Aug,49826,2018-04-16 19:52:52:870
0.0407,0,9.7447,0.0424,0.0027,9.8066,-0.0065,0.0093,-0.0714,0,-0.0012,0,267,-11.3,23.2,-31,25.28,-0.01,-0.24,3.1,1009.35,39.894,30.445225,-84.30042,130.21,NaN,,2.09,38.709675,130.6,13-Aug,49926,2018-04-16 19:52:52:970
0.0431,0.0239,9.7375,0.0424,0.0029,9.8066,0.0151,0.0211,-0.0451,0.0012,0,0,267,-11.3,23.2,-30.9,25.28,-0.02,-0.25,3.1,1009.35,39.894,30.445225,-84.30042,130.21,NaN,,2.09,38.709675,130.6,13-Aug,50026,2018-04-16 19:52:53:070
0.0359,0.0024,9.7399,0.0426,0.0034,9.8066,-0.0067,-0.001,-0.0666,0.0012,0,0,267,-10.6,23.2,-32.1,25.27,-0.02,-0.25,3.1,1009.37,39.894,30.445225,-84.30042,130.21,NaN,,2.09,38.709675,130.6,13-Aug,50127,2018-04-16 19:52:53:171
0.0431,0.0024,9.7447,0.0426,0.0034,9.8066,-0.0186,-0.013,-0.0355,0.0012,0.0012,0,267,-10.1,23.1,-33.4,23.19,-0.02,-0.25,3.1,1009.37,39.292,30.445225,-84.30042,130.21,NaN,,2.09,38.709675,130.6,13-Aug,50227,2018-04-16 19:52:53:271
0.0455,0.0072,9.7591,0.0422,0.0027,9.8066,-0.0087,-0.0267,-0.0451,0.0012,0,-0.0012,267,-10.4,23.1,-33.1,23.19,-0.02,-0.25,3.1,1009.37,39.292,30.445225,-84.30042,130.21,NaN,,2.09,38.709675,130.6,13-Aug,50326,2018-04-16 19:52:53:370
0.0455,0.012,9.7447,0.0422,0.0027,9.8066,-0.0087,-0.0267,-0.0451,-0.0012,0.0024,0,267,-11.1,23.2,-31.8,25.27,-0.02,-0.25,3.1,1009.37,39.292,30.445225,-84.30042,130.21,NaN,,2.09,38.709675,130.6,12-Aug,50427,2018-04-16 19:52:53:471
0.0479,0.0144,9.7543,0.042,0.0023,9.8066,0.0107,0.0288,-0.0738,0,0.0012,0,267,-11.1,23.2,-31.8,25.27,-0.02,-0.25,3.1,1009.37,38.089,30.445225,-84.30042,130.21,NaN,,2.09,38.709675,130.6,12-Aug,50526,2018-04-16 19:52:53:570
0.0263,-0.0024,9.7495,0.042,0.0023,9.8066,-0.0156,-0.0047,-0.0571,-0.0012,-0.0012,0.0037,267,-11.5,23.2,-31,25.28,-0.01,-0.25,3.1,1009.37,38.089,30.445225,-84.30042,130.21,NaN,,2.09,38.709675,130.6,12-Aug,50626,2018-04-16 19:52:53:670
0.0503,0.0407,9.7399,0.0419,0.0023,9.8066,0.006,1.00E-04,-0.0475,-0.0012,-0.0012,0.0037,267,-11.4,23.2,-31.1,25.28,-0.01,-0.25,3.1,1009.38,38.089,30.445225,-84.30042,130.21,NaN,,2.09,38.709675,130.6,12-Aug,50726,2018-04-16 19:52:53:770
0.0431,0.0024,9.7495,0.0419,0.0024,9.8066,0.0108,-0.0024,-0.0403,0.0012,-0.0024,0.0012,267,-11.4,23.1,-30.9,25.28,-0.01,-0.24,3.1,1009.38,36.967,30.445225,-84.30042,130.21,NaN,,2.09,38.709675,130.6,12-Aug,50826,2018-04-16 19:52:53:870
0.0455,-0.0048,9.7375,0.0419,0.0024,9.8066,-0.0108,-0.0264,-0.0379,0,-0.0012,-0.0012,267,-11.4,23.2,-30.9,25.28,-0.01,-0.24,3.1,1009.38,36.967,30.445225,-84.30042,130.21,NaN,,2.09,38.709675,130.6,12-Aug,50926,2018-04-16 19:52:53:970
0.0168,0.0024,9.7615,0.0419,0.0024,9.8066,-0.0108,-0.0264,-0.0379,0.0024,0.0012,0.0012,267,-11.4,23.2,-30.9,25.28,-0.01,-0.24,3.1,1009.38,36.967,30.445225,-84.30042,130.21,NaN,,2.09,38.709675,130.6,12-Aug,51026,2018-04-16 19:52:54:070
0.0527,0.012,9.7591,0.0415,0.0025,9.8066,0.0303,-0.024,-0.0283,0.0012,0,0.0012,267,-11.4,23.2,-31.2,25.29,-0.01,-0.24,3.1,1009.38,36.967,30.445225,-84.30042,130.21,NaN,,2.09,38.709675,130.6,12-Aug,51126,2018-04-16 19:52:54:170
0.0239,-0.0048,9.7591,0.0414,0.0028,9.8066,0.0017,-4.00E-04,-0.0523,0,0.0012,0.0012,267,-11.4,23.2,-31.3,25.29,-0.01,-0.24,3.1,1009.38,38.793,30.445225,-84.30042,130.21,NaN,,2.09,38.709675,130.6,12-Aug,51226,2018-04-16 19:52:54:270
0.0503,0.012,9.7375,0.0415,0.0029,9.8066,-0.0176,0.0162,-0.0619,0,0.0012,0.0012,267,-11.4,23.2,-31.3,25.29,-0.01,-0.24,3.1,1009.38,38.793,30.445225,-84.30042,130.21,NaN,,2.09,38.709675,130.6,12-Aug,51326,2018-04-16 19:52:54:370
0.0551,0.0168,9.7543,0.0416,0.003,9.8066,0.0086,0.0114,-0.0427,0.0012,0.0012,0.0012,267,-11.5,23.2,-31.6,25.28,-0.02,-0.24,3.1,1009.38,38.793,30.445225,-84.30042,130.21,NaN,,2.09,38.709675,130.6,11-Aug,51426,2018-04-16 19:52:54:470
0.0646,0.0335,9.7471,0.0419,0.003,9.8066,0.0228,0.0305,-0.0595,0,0.0024,0.0024,267,-11.5,23.3,-31.5,25.28,-0.02,-0.24,3.1,1009.36,38.192,30.445225,-84.30042,130.21,NaN,,2.09,38.709675,130.6,11-Aug,51526,2018-04-16 19:52:54:570
0.0335,0.0072,9.7782,0.0419,0.003,9.8066,0.0228,0.0305,-0.0595,0,0.0024,0.0024,267,-11.5,23.3,-31.4,25.28,-0.02,-0.24,3.1,1009.36,38.192,30.445225,-84.30042,130.21,NaN,,2.09,38.709675,130.6,11-Aug,51626,2018-04-16 19:52:54:670
0.0359,0.0383,9.7232,0.0419,0.003,9.8066,0.0252,0.0185,-0.0547,0,0.0012,0.0012,267,-11.4,23.4,-31.5,25.28,-0.02,-0.24,3.1,1009.34,38.192,30.445225,-84.30042,130.21,NaN,,2.09,38.709675,130.6,11-Aug,51726,2018-04-16 19:52:54:770
0.0551,0.0383,9.7423,0.0419,0.003,9.8066,0.0012,-0.0054,-0.0714,0.0012,0,0.0037,267,-11.4,23.3,-31.5,25.28,-0.02,-0.24,3.1,1009.34,35.888,30.445225,-84.30042,130.21,NaN,,2.09,38.709675,130.6,11-Aug,51826,2018-04-16 19:52:54:870
0.0527,0.0168,9.7279,0.0419,0.003,9.8066,-0.0012,-0.003,-0.0643,-0.0012,0,0.0012,267,-11.4,23.2,-31.7,25.27,-0.02,-0.24,3.1,1009.34,35.888,30.445225,-84.30042,130.21,NaN,,2.09,38.709675,130.6,11-Aug,51926,2018-04-16 19:52:54:970
0.0599,0.0311,9.7495,0.0418,0.0029,9.8066,-0.0226,-0.0221,-0.0427,0,-0.0012,0.0012,267,-11.4,23.3,-31.4,25.28,-0.02,-0.24,3.1,1009.34,35.888,30.445225,-84.30042,130.21,NaN,,2.09,38.709675,130.6,11-Aug,52026,2018-04-16 19:52:55:070
0.0359,-0.0144,9.7639,0.0415,0.0028,9.8066,0.0016,-0.0124,-0.0451,0.0024,0.0012,0.0024,267,-11.3,23.4,-31.1,25.28,-0.02,-0.24,3.1,1009.35,44.227,30.445225,-84.30042,130.21,NaN,,2.09,38.709675,130.6,11-Aug,52126,2018-04-16 19:52:55:170
0.0431,-0.0263,9.7615,0.0415,0.0028,9.8066,0.0016,-0.0124,-0.0451,0.0024,0.0012,0.0024,267,-11.3,23.4,-31.1,25.28,-0.02,-0.24,3.1,1009.35,44.227,30.445225,-84.30042,130.21,NaN,,2.09,38.709675,130.6,11-Aug,52226,2018-04-16 19:52:55:270
0.0479,0.0144,9.7423,0.0412,0.0025,9.8066,0.0306,-0.0073,-0.0547,0.0037,0.0012,0,267,-11.3,23.4,-31,25.29,-0.01,-0.24,3.1,1009.35,44.227,30.445225,-84.30042,130.21,NaN,,2.09,38.709675,130.6,11-Aug,52326,2018-04-16 19:52:55:370
0.0455,0.0287,9.7399,0.041,0.0024,9.8066,-0.017,0,-0.0427,0,-0.0012,0.0012,267,-11.3,23.3,-31.1,25.29,-0.01,-0.24,3.1,1009.35,44.227,30.445225,-84.30042,130.21,NaN,,2.09,38.709675,130.6,12-Aug,52426,2018-04-16 19:52:55:470
0.0479,0.0215,9.7423,0.0413,0.0023,9.8066,0.0066,0.0193,-0.0643,0,-0.0012,0.0012,267,-11.4,23.4,-31.2,25.29,-0.01,-0.24,3.1,1009.35,44.579,30.445225,-84.30042,130.21,NaN,,2.09,38.709675,130.6,12-Aug,52526,2018-04-16 19:52:55:570
0.0359,0.0192,9.7399,0.0414,0.0023,9.8066,0.0185,0.0144,-0.0571,-0.0012,0,0.0012,267,-11.3,23.4,-31.4,25.29,-0.01,-0.24,3.1,1009.35,44.579,30.445225,-84.30042,130.21,NaN,,2.09,38.709675,130.6,12-Aug,52626,2018-04-16 19:52:55:670
0.0479,0.0168,9.7255,0.0414,0.0023,9.8066,-0.0055,0.0312,-0.0571,-0.0024,0,0,267,-11.3,23.4,-31.4,25.29,-0.01,-0.24,3.1,1009.36,44.579,30.445225,-84.30042,130.21,NaN,,2.09,38.709675,130.6,12-Aug,52727,2018-04-16 19:52:55:771
0.0479,0.0096,9.7279,0.0414,0.0023,9.8066,-0.0055,0.0312,-0.0571,-0.0037,0,0.0012,267,-11.3,23.4,-31.4,25.29,-0.01,-0.24,3.1,1009.36,39.615,30.445225,-84.30042,130.21,NaN,,2.09,38.709675,130.6,12-Aug,52827,2018-04-16 19:52:55:871
0.0527,0.0192,9.7495,0.0419,0.0028,9.8066,-0.0107,-0.0052,-0.0499,-0.0012,-0.0012,0.0024,267,-11.3,23.3,-31.5,25.29,-0.01,-0.24,3.1,1009.37,39.615,30.445225,-84.30042,130.21,NaN,,2.09,38.709675,130.6,12-Aug,52926,2018-04-16 19:52:55:970
