ACCELEROMETER X (m/s²),ACCELEROMETER Y (m/s²),ACCELEROMETER Z (m/s²),GRAVITY X (m/s²),GRAVITY Y (m/s²),GRAVITY Z (m/s²),LINEAR ACCELERATION X (m/s²),LINEAR ACCELERATION Y (m/s²),LINEAR ACCELERATION Z (m/s²),GYROSCOPE X (rad/s),GYROSCOPE Y (rad/s),GYROSCOPE Z (rad/s),LIGHT (lux),MAGNETIC FIELD X (μT),MAGNETIC FIELD Y (μT),MAGNETIC FIELD Z (μT),ORIENTATION Z (azimuth °),ORIENTATION X (pitch °),ORIENTATION Y (roll °),PROXIMITY (i),ATMOSPHERIC PRESSURE (hPa),SOUND LEVEL (dB),LOCATION Latitude : ,LOCATION Longitude : ,LOCATION Altitude ( m),LOCATION Altitude-google ( m),LOCATION Altitude-atmospheric pressure ( m),LOCATION Speed ( Kmh),LOCATION Accuracy ( m),LOCATION ORIENTATION (°),Satellites in range,Time since start in ms ,YYYY-MO-DD HH-MI-SS_SSS
0.4549,6.4095,5.3751,-1.1122,5.0382,8.3396,1.1194,0.3154,-1.3627,0.9945,-0.2724,0.2089,0,-12.5,-35,-35.3,133.94,-29.77,6.39,3.1,1009.96,45.552,30.445915,-84.30154,,NaN,,,69.996765,,0 / 7,22,2018-04-16 20:37:44:925
-1.1493,5.1716,5.7008,-1.8602,6.0217,7.5133,0.711,-0.85,-1.8125,-0.7257,-0.2077,-0.077,0,-12.6,-34.9,-35.2,126.77,-30.91,7.6,3.1,1009.96,45.552,30.445915,-84.30154,,NaN,,,69.996765,,0 / 7,122,2018-04-16 20:37:45:025
-2.5307,4.3408,4.4103,-1.5351,4.6478,8.4977,-0.0547,-1.0756,1.8839,-1.5663,0.1784,-0.8125,0,-11.2,-36.1,-34.2,117.4,-37.88,13.91,3.1,1009.94,45.552,30.445915,-84.30154,,NaN,,,69.996765,,0 / 7,222,2018-04-16 20:37:45:125
-1.9633,1.8244,9.2754,-1.5351,4.6478,8.4977,-0.0547,-1.0756,1.8839,-1.5663,0.1784,-0.8125,0,-9.7,-35.9,-34.7,135.28,-28.29,10.24,3.1,1009.94,48.822,30.445915,-84.30154,,NaN,,,69.996765,,0 / 7,322,2018-04-16 20:37:45:225
1.2163,1.6042,6.3329,-0.7375,3.5962,9.0936,2.8995,-2.8181,2.7317,0.8882,1.9132,0.2053,0,-8.7,-34.9,-36.3,148.87,-21.51,4.64,3.1,1009.98,48.822,30.445915,-84.30154,,NaN,,,69.996765,,0 / 7,422,2018-04-16 20:37:45:325
-2.1477,4.9777,5.6002,-1.507,3.7807,8.9222,-0.6406,1.197,-3.322,-0.6597,-0.4667,-1.3341,0,-6,-34.2,-36.6,145.68,-22.68,9.59,3.1,1009.98,48.822,30.445915,-84.30154,,NaN,,,69.996765,,0 / 7,522,2018-04-16 20:37:45:425
-0.7542,2.1812,13.0512,-0.6671,1.5746,9.6564,-0.7791,2.1653,2.7866,-1.2645,-1.7801,-0.9151,0,-6,-34.2,-36.6,145.68,-22.68,9.59,3.1,1010.01,47.76,30.445915,-84.30154,,NaN,,,69.996765,,0 / 7,621,2018-04-16 20:37:45:524
-4.0248,-0.6704,9.5532,2.1267,1.8175,9.3992,-1.6407,-2.8135,1.1356,1.2034,-4.0207,1.0153,0,-4.6,-31.2,-38.5,162.79,-9.24,3.95,3.1,1010.01,47.76,30.445915,-84.30154,,NaN,,,69.996765,,0 / 7,721,2018-04-16 20:37:45:624
-0.9625,-6.0982,6.8117,6.1482,1.2356,7.5395,-7.1107,-7.3339,-0.7277,-0.2786,-4.0488,4.86,0,-22.4,-30.1,-27.9,146.99,-10.68,-12.75,3.1,1010.04,47.76,30.445915,-84.30154,,NaN,,,69.996765,,0 / 7,822,2018-04-16 20:37:45:725
10.3959,-4.0631,5.9115,6.1482,1.2356,7.5395,-7.1107,-7.3339,-0.7277,-0.2786,-4.0488,4.86,0,-39.6,-11.2,-6.6,104.84,-7.24,-39.2,3.1,1010.04,48.189,30.445915,-84.30154,,NaN,,,69.996765,,0 / 7,922,2018-04-16 20:37:45:825
12.5891,-2.083,-0.1532,8.1736,-2.7455,4.6717,4.6214,0.4111,-0.4171,1.8473,-0.7599,4.0317,0,-32.9,8.7,-4.5,104.84,-7.24,-39.2,0,1010.01,48.189,30.445915,-84.30154,,NaN,,,69.996765,,0 / 10,1022,2018-04-16 20:37:45:925
11.7152,-5.8468,8.4422,7.1718,-4.9446,4.504,7.5578,-1.9605,7.3573,-1.5724,0.9102,1.19,0,-19.6,33.7,85.3,62.17,30.28,-57.87,0,1010.01,48.189,30.445915,-84.30154,,NaN,,,69.996765,,0 / 10,1122,2018-04-16 20:37:46:025
11.5787,-7.6353,4.8843,7.0694,-5.711,3.6848,9.0416,-6.9715,-2.0112,-2.1564,3.5271,0.3115,0,-22,2.3,8.3,113.71,35.62,-62.47,0,1009.98,48.189,30.445915,-84.30154,,NaN,,,69.996765,,0 / 10,1222,2018-04-16 20:37:46:125
9.6872,-8.7439,3.5818,6.1739,-5.9159,4.8017,2.4719,3.6796,-0.4298,0.4447,0.2688,0.43,0,-85.6,74.5,2.2,70.17,37.1,-52.13,0,1009.98,48.962,30.445915,-84.30154,,NaN,,,69.996765,,0 / 10,1322,2018-04-16 20:37:46:225
4.0774,0.6058,-17.3058,6.3935,-4.8125,5.6686,-0.6999,0.6656,-0.2791,0.2627,-1.0336,-0.3421,0,-85.6,74.5,2.2,70.17,37.1,-52.13,0,1009.98,48.962,30.445915,-84.30154,,NaN,,,69.996765,,0 / 10,1421,2018-04-16 20:37:46:324
3.9434,-1.8867,5.0399,6.3935,-4.8125,5.6686,-0.6999,0.6656,-0.2791,0.2627,-1.0336,-0.3421,0,-35.2,10,-0.6,101.24,29.39,-48.44,0,1010.02,48.962,30.445915,-84.30154,,NaN,,,69.996765,,0 / 10,1522,2018-04-16 20:37:46:425
2.4469,-4.5276,5.7463,7.642,-3.8453,4.7942,-2.2453,2.8637,-16.1167,1.5345,-1.438,0.1393,0,-36.9,11.6,2.9,101.24,29.39,-48.44,0,1010.02,47.604,30.445915,-84.30154,,NaN,,,69.996765,,0 / 10,1622,2018-04-16 20:37:46:525
5.9546,-2.8995,5.9091,7.9605,-4.0126,4.0866,-2.0059,1.1131,1.8224,-1.0311,2.1661,0.237,0,-36.8,10.4,3.8,95.59,23.09,-57.9,0,1010.05,47.604,30.445915,-84.30154,,NaN,,,69.996765,,0 / 10,1721,2018-04-16 20:37:46:624
7.1709,-4.1373,3.9984,7.5189,-4.9921,3.836,-3.8461,-0.5052,-1.3364,-0.5327,-1.6799,1.8033,0,-36.9,11,4.4,97.47,24.15,-62.83,0,1010.05,47.604,30.445915,-84.30154,,NaN,,,69.996765,,0 / 10,1821,2018-04-16 20:37:46:724
12.1055,-8.8301,2.5379,5.8942,-7.373,2.6585,-5.7936,1.2604,-2.3017,-1.394,1.9328,2.3237,0,-26,23.1,12.7,64.79,30.6,-62.97,0,1010.15,46.996,30.445915,-84.30154,,NaN,,,69.996765,,0 / 10,1922,2018-04-16 20:37:46:825
6.8811,-7.3983,3.6082,4.0945,-8.7685,1.5869,2.7866,1.3702,2.0213,1.1277,-0.8845,1.4514,0,-15.3,28,16.7,58.19,48.75,-65.72,0,1010.15,46.996,30.445915,-84.30154,,NaN,,,69.996765,,0 / 12,2022,2018-04-16 20:37:46:925
2.4709,-6.9266,4.0391,4.0945,-8.7685,1.5869,2.7866,1.3702,2.0213,1.1277,-0.8845,1.4514,0,-15.3,28,16.7,58.19,48.75,-65.72,0,1009.98,46.996,30.445915,-84.30154,,NaN,,,69.996765,,0 / 12,2121,2018-04-16 20:37:47:024
2.0782,-10.2738,1.3384,3.8407,-8.8614,1.7013,0.7994,-0.5146,-4.1267,-2.1478,-3.1056,1.6518,0,-14.8,29.3,15.2,74.65,63.4,-68.82,0,1009.98,47.197,30.445915,-84.30154,,NaN,,,69.996765,,0 / 12,2222,2018-04-16 20:37:47:125
3.1724,-10.1637,0.9386,3.4584,-9.1338,0.8856,0.7412,0.6389,-1.1418,-0.4349,-0.595,0.8125,0,-12.8,29.3,16.9,69.2,64.64,-66.11,0,1010.08,47.197,30.445915,-84.30154,,NaN,,,69.996765,,0 / 12,2322,2018-04-16 20:37:47:225
1.0798,-10.111,-1.0655,3.0772,-9.3017,0.4238,-1.564,6.4381,1.585,-0.8467,-0.8992,0.0696,0,-10.1,29.7,17.7,82.77,71.53,-82.16,0,1010.08,47.197,30.445915,-84.30154,,NaN,,,69.996765,,0 / 12,2422,2018-04-16 20:37:47:325
1.0798,-10.111,-1.0655,1.5503,-9.6425,0.8877,-0.5663,-1.9913,-4.3044,0.8137,-1.9022,1.3903,0,1.2,37.4,15.2,40,79.5,-60.2,0,1010.08,47.197,30.445915,-84.30154,,NaN,,,69.996765,,0 / 12,2522,2018-04-16 20:37:47:425
1.5347,-15.7543,-2.9976,1.0175,-9.7401,0.5149,-0.7326,-6.1172,-2.5549,0.0953,0.0831,-0.0012,0,-14.3,34.8,25.3,84.26,83.32,-63.16,0,1010.08,46.964,30.445915,-84.30154,,NaN,,,69.996765,,0 / 12,2622,2018-04-16 20:37:47:525
0.5531,-10.6809,2.095,1.0175,-9.7401,0.5149,-0.7326,-6.1172,-2.5549,0.0953,0.0831,-0.0012,0,-14.3,34.8,25.3,84.26,83.32,-63.16,0,1010.04,46.964,30.445915,-84.30154,,NaN,,,69.996765,,0 / 12,2722,2018-04-16 20:37:47:625
0.7326,-8.854,2.265,1.0707,-9.7368,0.4673,-0.3381,0.8828,1.7977,-0.7306,1.7275,-0.573,0,-18,33.5,24.3,92.39,83.32,-63.16,0,1010.04,46.964,30.445915,-84.30154,,NaN,,,69.996765,,0 / 12,2822,2018-04-16 20:37:47:725
3.2849,-9.388,0.1484,1.261,-9.7226,0.2268,4.9545,2.705,-1.2923,-0.3054,0.0977,0.044,0,-19.6,32.1,25.3,111.25,82.49,-79.8,0,1010.04,46.964,30.445915,-84.30154,,NaN,,,69.996765,,0 / 12,2922,2018-04-16 20:37:47:825
4.8005,-8.8109,0.1939,1.5752,-9.6792,0.0421,-0.5553,-1.3895,-0.7604,-0.3763,0.3384,-0.1075,0,-18.8,32.4,25.3,109.62,82.49,-79.8,0,1010.04,48.4,30.445915,-84.30154,,NaN,,,69.996765,,0 / 12,3021,2018-04-16 20:37:47:924
0.5411,-11.119,-0.1077,1.6092,-9.6696,0.2833,-0.6754,1.6487,-1.7222,-0.3763,0.3384,-0.1075,0,-21.2,29.6,24.2,109.62,82.49,-79.8,0,1009.96,48.4,30.445915,-84.30154,,NaN,,,69.996765,,0 / 12,3122,2018-04-16 20:37:48:025
2.8923,-9.7471,-0.158,1.439,-9.671,0.7561,2.0878,0.0747,-1.0769,0.5058,0.5241,0.2431,0,-20.5,29.7,21.8,112.99,80.41,-80.02,0,1009.96,48.4,30.445915,-84.30154,,NaN,,,69.996765,,0 / 12,3222,2018-04-16 20:37:48:125
3.601,-9.0504,-0.1532,1.439,-9.671,0.7561,2.0878,0.0747,-1.0769,0.1955,0.0293,0.3995,0,-20.5,29.7,21.8,112.99,80.41,-80.02,0,1010.02,47.025,30.445915,-84.30154,,NaN,,,69.996765,,0 / 12,3321,2018-04-16 20:37:48:224
3.3616,-11.7272,0.0192,1.3811,-9.6837,0.6984,1.9804,-2.0434,-0.6793,-0.9529,-0.4704,-0.1161,0,-20.2,31.2,20.1,96.65,80.46,-62.28,0,1010.02,47.025,30.445915,-84.30154,,NaN,,,69.996765,,0 / 12,3422,2018-04-16 20:37:48:325
-0.2514,-11.3106,-1.4701,1.3436,-9.6968,-0.5796,-0.5128,-2.0926,-1.568,-2.1063,0.1271,-0.3372,0,-20,31.9,19.7,96.65,80.46,-62.28,0,1010.06,47.025,30.445915,-84.30154,,NaN,,,69.996765,,0 / 12,3522,2018-04-16 20:37:48:425
-0.3639,-9.4526,2.4541,1.4115,-9.3373,-2.6445,1.3203,1.4601,0.5207,-2.1063,0.1271,-0.3372,0,-18.5,26.8,27,142.35,81.42,-113.34,0,1010.06,47.894,30.445915,-84.30154,,NaN,,,69.996765,,0 / 12,3622,2018-04-16 20:37:48:525
0.9721,-9.5915,-1.3384,1.6502,-9.0188,-3.4796,-2.8258,0.148,1.2673,-1.0006,-1.7752,-0.8931,0,-15.3,21.2,33.5,174.5,72.2,-151.91,0,1010.02,47.894,30.445915,-84.30154,,NaN,,,69.996765,,0 / 12,3722,2018-04-16 20:37:48:625
1.4964,-7.1613,-1.8532,2.0425,-8.8595,-3.6753,-0.5461,1.6982,1.8222,-0.3519,-0.3861,-0.942,0,-14.3,18.6,35.6,174.5,72.2,-151.91,0,1010.02,47.894,30.445915,-84.30154,,NaN,,,69.996765,,0 / 12,3822,2018-04-16 20:37:48:725
1.4964,-7.1613,-1.8532,2.0425,-8.8595,-3.6753,-0.5461,1.6982,1.8222,0.8002,-0.3152,-0.3971,0,-14.5,19.1,36.5,168.1,64.61,-150.94,0,1010.06,46.489,30.445915,-84.30154,,NaN,,,69.996765,,0 / 12,3922,2018-04-16 20:37:48:825
4.0248,-10.9251,-7.8269,2.3891,-9.0351,-2.9713,-1.0962,0.8108,-1.5706,0.5693,0.088,-0.1222,0,-14.4,19.3,36.1,168.1,64.61,-150.94,0,1010.06,46.489,30.445805,-84.30161,55.83,NaN,,1.95,412.90323,57,0 / 12,4021,2018-04-16 20:37:48:924
7.6018,-14.4518,-3.3328,2.4718,-9.1089,-2.6622,-0.3026,-0.5711,-2.3801,-0.6487,-0.0061,-0.4557,0,-15.3,20.9,34.3,153.95,68.26,-137.12,0,1010.06,46.489,30.445805,-84.30161,55.83,NaN,,1.95,412.90323,57,12-Oct,4121,2018-04-16 20:37:49:024
6.1078,-19.1087,2.0902,3.1641,-8.8436,-2.8193,-13.5744,10.6082,2.5799,-0.6487,-0.0061,-0.4557,0,-15.3,20.9,34.3,153.95,68.26,-137.12,0,1010.06,46.438,30.445805,-84.30161,55.83,NaN,,1.95,412.90323,57,12-Oct,4222,2018-04-16 20:37:49:125
-2.7821,-5.2483,-1.3599,2.3026,-9.4074,-1.5389,-5.0848,4.1592,0.1789,1.2425,1.0886,1.3219,0,-16.6,21.7,32.7,148.48,64.4,-131.7,0,1009.99,46.438,30.445805,-84.30161,55.83,NaN,,1.95,412.90323,57,12-Oct,4322,2018-04-16 20:37:49:225
1.3073,-8.3967,0.6345,1.9183,-9.6105,-0.3593,-0.283,1.0198,0.1797,0.7428,0.9481,0.2798,0,-17,22.5,30.9,145.31,73.6,-123.76,0,1009.99,46.438,30.445805,-84.30161,55.83,NaN,,1.95,412.90323,57,12-Oct,4422,2018-04-16 20:37:49:325
2.0543,-9.7734,-0.1724,1.9183,-9.6105,-0.3593,-0.283,1.0198,0.1797,0.463,0.3506,0.3164,0,-17.1,24.9,25.7,125.66,78.52,-100.61,0,1010.01,46.36,30.445805,-84.30161,55.83,NaN,,1.95,412.90323,57,12-Oct,4522,2018-04-16 20:37:49:425
2.0423,-9.5244,-0.158,1.6147,-9.6673,0.3257,0.6095,0.253,0.0238,0.628,0.3726,0.4081,0,-17.2,26.1,24,105.35,80.33,-78.59,0,1010.01,46.36,30.445805,-84.30161,55.83,NaN,,1.95,412.90323,57,12-Oct,4622,2018-04-16 20:37:49:525
1.2259,-9.3401,-0.1844,1.2735,-9.6718,1.0026,0.5796,-0.1376,-1.788,0.033,0.5021,0.4227,0,-17.4,27.4,21.9,80.38,80.49,-51.79,0,1010.01,46.36,30.445805,-84.30161,55.83,NaN,,1.95,412.90323,57,12-Oct,4722,2018-04-16 20:37:49:625
2.4374,-9.534,-1.5204,1.0524,-9.71,0.8825,1.385,0.176,-2.4029,0.033,0.5021,0.4227,0,-17.4,27.4,21.9,80.38,80.49,-51.79,0,1010.01,47.008,30.445805,-84.30161,55.83,NaN,,1.95,412.90323,57,12-Oct,4822,2018-04-16 20:37:49:725
-3.0671,-12.6657,-2.0184,1.439,-9.6834,-0.5758,-5.5858,-1.9097,-2.034,-1.0531,-0.2492,-0.1148,0,-17.3,28.1,20.9,80.78,81.95,-50.02,0,1010.01,47.008,30.445805,-84.30161,55.83,NaN,,1.95,412.90323,57,12-Oct,4921,2018-04-16 20:37:49:824
1.2833,-11.7535,1.1301,1.6201,-9.1883,-3.0201,0.4151,-1.3513,1.4973,-2.3066,0.1539,-0.1283,0,-17.2,25.7,22.7,142.94,80.91,-111.81,0,1010.01,47.008,30.445808,-84.30158,44.79,NaN,,4.03,412.90323,60.73,12-Oct,5021,2018-04-16 20:37:49:924
1.0104,-8.2052,-2.0208,1.6201,-9.1883,-3.0201,0.4151,-1.3513,1.4973,-1.0715,-1.0507,-0.7282,0,-16.9,15.6,31.4,180.68,69.54,-151.79,0,1010.01,47.008,30.445808,-84.30158,44.79,NaN,,4.03,412.90323,60.73,12-Oct,5122,2018-04-16 20:37:50:025
-0.4621,-7.5563,-1.5682,1.7303,-8.8166,-3.9298,-1.7063,0.9801,2.036,0.0977,-0.3787,-0.5376,0,-14.5,14.6,33,178.92,64.03,-156.24,0,1010.01,45.216,30.445808,-84.30158,44.79,NaN,,4.03,412.90323,60.73,12-Oct,5222,2018-04-16 20:37:50:125
0.7398,-6.4861,-3.3807,1.9553,-8.8178,-3.82,-1.2155,2.3317,0.4393,1.2425,0.0977,0.3335,0,-15.1,13.8,33.7,175.51,64.05,-152.89,0,1009.99,45.216,30.445808,-84.30158,44.79,NaN,,4.03,412.90323,60.73,12-Oct,5322,2018-04-16 20:37:50:225
3.4023,-11.0951,-6.8357,1.7589,-9.2562,-2.7199,3.2044,-3.704,-6.2371,1.2425,0.0977,0.3335,0,-15.1,13.8,33.7,175.51,64.05,-152.89,0,1009.99,45.216,30.445808,-84.30158,44.79,NaN,,4.03,412.90323,60.73,12-Oct,5422,2018-04-16 20:37:50:325
0.0766,-6.3903,-3.5004,2.1425,-9.0724,-3.0449,-2.1904,-2.6596,-0.738,-0.5058,-0.5205,-0.8088,0,-14.4,14.7,31.8,168.48,70.71,-147.11,0,1009.99,46.941,30.445808,-84.30158,44.79,NaN,,4.03,412.90323,60.73,12-Oct,5522,2018-04-16 20:37:50:425
4.7694,-14.9858,-5.0376,2.3596,-9.0765,-2.8668,-7.7635,4.3071,3.3002,-0.4203,-0.1185,-0.573,0,-14.6,16.2,29.8,168.52,67.69,-144.87,0,1009.99,46.941,30.445808,-84.30158,44.79,NaN,,4.03,412.90323,60.73,12-Oct,5622,2018-04-16 20:37:50:525
9.2994,-15.4167,0.2729,2.3596,-9.0765,-2.8668,-7.7635,4.3071,3.3002,0.8467,0.347,-0.0367,0,-14.7,17.3,28.4,164.5,67.75,-140.54,0,1010,46.941,30.445808,-84.30158,44.79,NaN,,4.03,412.90323,60.73,12-Oct,5722,2018-04-16 20:37:50:625
1.8268,-10.6713,-0.7925,1.9332,-9.4714,-1.6509,-1.6602,0.2582,0.3125,0.6182,0.595,0.2993,0,-14.8,18.2,27.2,155.14,74.98,-130.5,0,1010,47.654,30.445808,-84.30158,44.79,NaN,,4.03,412.90323,60.73,12-Oct,5822,2018-04-16 20:37:50:725
1.9633,-9.3927,-0.3639,1.6022,-9.6473,-0.7294,0.3611,0.2546,0.3655,0.6182,0.595,0.2993,0,-14.8,18.2,27.2,155.14,74.98,-130.5,0,1009.99,47.654,30.445808,-84.30158,44.79,NaN,,4.03,412.90323,60.73,12-Oct,5922,2018-04-16 20:37:50:825
1.4605,-9.2108,-0.3065,1.2788,-9.7224,0.0956,0.4259,-0.0845,-0.3662,0.6939,0.1014,0.3445,0,-15.1,20.1,24.8,140.46,79.66,-114.48,0,1009.99,47.654,30.445808,-84.30158,44.79,NaN,,4.03,412.90323,60.73,12-Oct,6022,2018-04-16 20:37:50:925
1.7526,-9.5556,-0.0024,0.8977,-9.7237,0.9021,0.6873,0.0963,-2.3147,0.8039,0.5082,0.3213,0,-14.8,22.2,21.5,114.13,82.49,-85.72,0,1009.98,45.789,30.44582,-84.301575,35.89,NaN,,0.92,412.90323,108.8,12-Oct,6121,2018-04-16 20:37:51:024
4.415,-11.5021,-0.0072,0.7468,-9.735,0.9177,3.6683,-1.7671,-0.9249,-0.2615,0.4679,0.0867,0,-13.9,23.6,18.5,74.03,82.54,-44.86,0,1009.98,45.789,30.44582,-84.301575,35.89,NaN,,0.92,412.90323,108.8,12-Oct,6222,2018-04-16 20:37:51:125
-3.1748,-10.9011,-1.688,0.7468,-9.735,0.9177,3.6683,-1.7671,-0.9249,-0.2615,0.4679,0.0867,0,-12.9,24.2,16.3,70.7,83.07,-39.14,0,1009.98,45.789,30.44582,-84.301575,35.89,NaN,,0.92,412.90323,108.8,12-Oct,6322,2018-04-16 20:37:51:225
-0.68,-12.2946,2.6193,1.0376,-9.7403,-0.4686,-2.1916,-0.8496,-0.5849,-2.5461,-0.3409,-0.1894,0,-12.1,22.2,18.9,142.41,83.33,-114.31,0,1009.98,45.789,30.44582,-84.301575,35.89,NaN,,0.92,412.90323,108.8,12-Oct,6422,2018-04-16 20:37:51:325
1.4725,-9.4239,-2.1908,1.345,-9.1914,-3.1431,1.9352,0.4787,0.2747,-1.2596,-0.7795,-0.5192,0,-10.8,17.3,27.8,142.41,83.33,-114.31,0,1009.99,46.198,30.44582,-84.301575,35.89,NaN,,0.92,412.90323,108.8,12-Oct,6521,2018-04-16 20:37:51:424
-1.8364,-6.4669,-2.1932,1.8292,-8.7488,-4.0353,-3.9314,0.8069,2.4048,-0.7343,-1.201,-1.1521,0,-10.8,17.3,27.8,142.41,83.33,-114.31,0,1009.99,46.198,30.44582,-84.301575,35.89,NaN,,0.92,412.90323,108.8,12-Oct,6622,2018-04-16 20:37:51:525
0.747,-5.7295,-2.5619,2.1214,-8.6625,-4.0781,-1.3744,2.933,1.5163,0.5767,0.6622,-0.0244,0,-10.5,16.1,28.1,172.72,63.14,-155.61,0,1009.99,46.198,30.44582,-84.301575,35.89,NaN,,0.92,412.90323,108.8,12-Oct,6721,2018-04-16 20:37:51:624
3.2849,-10.0631,-7.0823,1.9372,-9.2044,-2.7743,4.1251,-5.5276,-7.794,1.2877,0.055,0.0476,0,-10.5,15.6,28.7,166.84,62.05,-152.52,0,1009.99,48.192,30.44582,-84.301575,35.89,NaN,,0.92,412.90323,108.8,12-Oct,6822,2018-04-16 20:37:51:725
0.7039,-9.0647,-4.9777,1.9372,-9.2044,-2.7743,4.1251,-5.5276,-7.794,1.2877,0.055,0.0476,0,-10.5,16.8,27.7,159.6,69.82,-145.07,0,1009.99,48.192,30.44582,-84.301575,35.89,NaN,,0.92,412.90323,108.8,12-Oct,6921,2018-04-16 20:37:51:824
4.7143,-13.9395,-3.8691,2.4036,-8.9145,-3.3052,-1.6015,-0.1023,-0.212,0.3372,-0.6658,-0.226,0,-10.9,18.8,26.1,159.47,65.37,-143.98,0,1009.99,48.192,30.44582,-84.301575,35.89,NaN,,0.92,412.90323,108.8,12-Oct,7021,2018-04-16 20:37:51:924
-4.3001,-5.9067,1.2833,2.7663,-8.9957,-2.7559,-7.0664,3.089,4.0392,0.8711,-0.0415,0.788,0,-11.7,20.7,24.8,149.39,66.54,-134.89,0,1010.02,49.743,30.445812,-84.30157,31.68,NaN,,0.63,412.90323,269.01,12-Oct,7121,2018-04-16 20:37:52:024
-1.5826,-7.779,-1.0343,1.9685,-9.5413,-1.1218,-4.6094,0.9578,0.1593,1.0067,1.1777,0.4704,0,-11.7,20.7,24.8,149.39,66.54,-134.89,0,1010.02,49.743,30.445812,-84.30157,31.68,NaN,,0.63,412.90323,269.01,12-Oct,7222,2018-04-16 20:37:52:125
4.6473,-10.0224,1.2354,1.2067,-9.7321,-0.0183,2.2626,0.5165,-1.0735,0.639,0.7465,0.1271,0,-11.9,23.1,21.9,139.51,76.64,-119.68,0,1010.01,49.743,30.445812,-84.30157,31.68,NaN,,0.63,412.90323,269.01,12-Oct,7322,2018-04-16 20:37:52:225
0.6608,-9.0671,-0.7853,1.1702,-9.7221,0.5303,0.7164,0.3581,-0.1616,0.6341,0.6182,0.441,0,-12,24.9,19.7,114.74,82.93,-90.87,0,1010.01,47.582,30.445812,-84.30157,31.68,NaN,,0.63,412.90323,269.01,12-Oct,7422,2018-04-16 20:37:52:325
2.253,-9.0551,-0.1628,1.1702,-9.7221,0.5303,0.7164,0.3581,-0.1616,0.6341,0.6182,0.441,0,-11.9,26.6,17.3,90.96,82.47,-65.62,0,1010.02,47.582,30.445812,-84.30157,31.68,NaN,,0.63,412.90323,269.01,12-Oct,7521,2018-04-16 20:37:52:424
4.1325,-10.1637,-0.1724,0.7885,-9.7141,1.0889,2.8268,0.0579,-0.0426,0.121,0.5327,0.3641,0,-11.4,27.9,15.9,60.66,82.12,-35.91,0,1010.02,47.582,30.445812,-84.30157,31.68,NaN,,0.63,412.90323,269.01,12-Oct,7621,2018-04-16 20:37:52:524
5.4853,-12.534,-1.9896,0.9698,-9.75,0.409,4.5154,-2.784,-2.3987,-1.4478,-0.3763,0.248,0,-10.5,28.6,15.5,89.59,83.84,-67.13,0,1010,47.582,30.445812,-84.30157,31.68,NaN,,0.63,412.90323,269.01,12-Oct,7721,2018-04-16 20:37:52:624
-0.9697,-13.372,1.9082,1.5789,-9.3443,-2.5222,-0.2189,-2.3781,2.989,-2.1979,0.7086,-0.2187,0,-10.5,28.6,15.5,89.59,83.84,-67.13,0,1010,47.201,30.445812,-84.30157,31.68,NaN,,0.63,412.90323,269.01,12-Oct,7822,2018-04-16 20:37:52:725
0.8979,-8.9259,-0.1628,1.8608,-8.648,-4.2332,-2.6102,2.205,2.4543,-1.3549,-1.3659,-1.0287,0,-11.9,21.8,28.7,167.12,72.34,-147.95,0,1010,47.201,30.445812,-84.30157,31.68,NaN,,0.63,412.90323,269.01,12-Oct,7922,2018-04-16 20:37:52:825
-0.17,-7.6306,-0.9481,2.0061,-8.235,-4.9325,-4.374,3.4034,1.6308,0.5644,0.1246,-0.2688,0,-10,17.9,34.3,168.63,61.87,-156.27,0,1010,47.201,30.44582,-84.30156,23.13,NaN,,3,412.90323,127.86,13-Oct,8021,2018-04-16 20:37:52:924
0.2035,-5.2554,-3.0264,2.0061,-8.235,-4.9325,-4.374,3.4034,1.6308,0.5644,0.1246,-0.2688,0,-10.7,19.2,34,172.39,57.11,-157.87,0,1010,47.398,30.44582,-84.30156,23.13,NaN,,3,412.90323,127.86,13-Oct,8122,2018-04-16 20:37:53:025
3.0742,-9.7567,-7.5875,1.8558,-8.9524,-3.547,1.2184,-0.8043,-4.0405,1.9206,-0.4679,0.6292,0,-9.8,20.4,33.1,164.21,65.91,-152.38,0,1010,47.398,30.44582,-84.30156,23.13,NaN,,3,412.90323,127.86,13-Oct,8222,2018-04-16 20:37:53:125
-2.2147,-7.4246,-2.5619,2.1727,-8.9809,-3.2852,-5.1464,-3.6537,-0.0572,0.0855,-1.1472,-0.3311,0,-10,22.4,31.1,156.24,66.32,-146.52,0,1010,47.398,30.44582,-84.30156,23.13,NaN,,3,412.90323,127.86,13-Oct,8322,2018-04-16 20:37:53:225
-0.3711,-1.8651,6.4358,2.4556,-9.0422,-2.8946,-6.1596,2.5321,2.9832,1.3488,0.314,1.0653,0,-10,22.4,31.1,156.24,66.32,-146.52,0,1010,44.143,30.44582,-84.30156,23.13,NaN,,3,412.90323,127.86,13-Oct,8422,2018-04-16 20:37:53:325
2.4805,-9.1868,-2.2554,1.6056,-9.5812,-1.3391,0.1255,-0.6663,1.0542,1.2034,1.0666,0.6793,0,-10.6,23.8,29.9,149.04,67.23,-139.69,0,1010,44.143,30.44582,-84.30156,23.13,NaN,,3,412.90323,127.86,13-Oct,8522,2018-04-16 20:37:53:425
3.7997,-10.2738,-1.4988,1.3054,-9.7183,-0.1443,0.0234,0.7972,-0.1502,0.8015,0.314,0.2578,0,-10.8,25.5,28,144.45,77.69,-129.83,0,1010,44.143,30.44582,-84.30156,23.13,NaN,,3,412.90323,127.86,13-Oct,8622,2018-04-16 20:37:53:525
1.6305,-9.1509,-0.103,1.3054,-9.7183,-0.1443,0.0234,0.7972,-0.1502,0.8015,0.314,0.2578,0,-10.3,29,23,111.27,82.3,-96.31,0,1010,43.599,30.44582,-84.30156,23.13,NaN,,3,412.90323,127.86,13-Oct,8721,2018-04-16 20:37:53:624
0.3711,-9.0599,0.0527,0.9908,-9.72,0.842,-0.6197,0.6601,-0.7894,0.9639,0.3128,0.4203,0,-9.3,30.6,19.4,64.91,82.38,-49.64,0,1010,43.599,30.44582,-84.30156,23.13,NaN,,3,412.90323,127.86,13-Oct,8822,2018-04-16 20:37:53:725
2.9713,-9.9362,0.9817,0.5667,-9.7117,1.2375,2.8762,-1.0122,0.3595,-0.0855,0.3922,0.1759,0,-8.8,31.3,17.7,64.91,82.38,-49.64,0,1010.02,43.599,30.44582,-84.30156,23.13,NaN,,3,412.90323,127.86,13-Oct,8922,2018-04-16 20:37:53:825
-4.5922,-11.2124,-2.1309,0.632,-9.7797,0.3587,2.0616,-5.3114,-2.3364,-1.7275,-0.7123,-0.3787,0,-7.8,31.6,17.2,78.53,85.75,-60.42,0,1010.02,43.599,30.44582,-84.30156,23.13,NaN,,3,412.90323,127.86,13-Oct,9022,2018-04-16 20:37:53:925
1.5659,-12.1007,3.6369,1.4612,-9.3742,-2.4819,0.4303,-3.7608,4.4548,-1.9768,0.4838,-0.6988,0,-7.8,31.6,17.2,78.53,85.75,-60.42,0,1010.02,47.489,30.44581,-84.30156,30.82,NaN,,2.06,412.90323,115.71,13-Oct,9121,2018-04-16 20:37:54:024
-1.0559,-6.8811,-1.494,2.0298,-8.7027,-4.0389,-3.0857,1.8215,2.5449,-1.2657,-1.3744,-1.0849,0,-11.2,22.8,30.4,166.15,72.92,-149.51,0,1010.02,47.489,30.44581,-84.30156,30.82,NaN,,2.06,412.90323,115.71,13-Oct,9222,2018-04-16 20:37:54:125
-2.2315,-4.8532,-1.7789,2.0298,-8.7027,-4.0389,-3.0857,1.8215,2.5449,-1.2657,-1.3744,-1.0849,0,-9.4,18.7,35.4,166.15,72.92,-149.51,0,1010.02,47.489,30.44581,-84.30156,30.82,NaN,,2.06,412.90323,115.71,13-Oct,9322,2018-04-16 20:37:54:225
3.5196,-8.2483,-5.9067,2.0494,-8.3642,-4.6915,-2.83,3.5326,2.4983,0.5534,0.0195,0.1503,0,-8,18.8,36.3,158.57,62.55,-153.32,0,1010.02,46.749,30.44581,-84.30156,30.82,NaN,,2.06,412.90323,115.71,13-Oct,9422,2018-04-16 20:37:54:325
-2.7486,-9.1078,-7.4701,1.7689,-9.021,-3.415,3.7092,-5.9408,-5.5085,1.2217,0.0965,-0.3519,0,-8.5,18.6,35.6,161.33,58.53,-156.4,0,1010.01,46.749,30.44581,-84.30156,30.82,NaN,,2.06,412.90323,115.71,13-Oct,9522,2018-04-16 20:37:54:425
4.111,-15.7878,-5.1501,2.1092,-8.872,-3.6067,-3.9552,-2.7785,1.4447,0.1539,-0.0623,0.314,0,-7.4,20.5,32.4,157.83,66.91,-152.62,0,1010.01,46.749,30.44581,-84.30156,30.82,NaN,,2.06,412.90323,115.71,13-Oct,9622,2018-04-16 20:37:54:525
6.3233,-15.2276,0.9338,2.2439,-9.0674,-2.9863,-1.9278,-3.5792,3.8482,0.9615,-0.4911,1.0971,0,-7.5,21.7,30.9,151.96,64.78,-149.68,0,1010.04,47.122,30.44581,-84.30156,30.82,NaN,,2.06,412.90323,115.71,13-Oct,9722,2018-04-16 20:37:54:625
-2.1644,-8.2746,-0.7398,1.5942,-9.5881,-1.3024,-0.8975,-0.6689,1.0869,1.0287,1.6017,0.711,0,-8.4,22.8,29.7,137.44,77.88,-129.25,0,1010.04,47.122,30.44581,-84.30156,30.82,NaN,,2.06,412.90323,115.71,13-Oct,9822,2018-04-16 20:37:54:725
3.2203,-9.0384,0.7039,1.5942,-9.5881,-1.3024,-0.8975,-0.6689,1.0869,1.0287,1.6017,0.711,0,-8.4,22.8,29.7,137.44,77.88,-129.25,0,1010.02,47.122,30.44581,-84.30156,30.82,NaN,,2.06,412.90323,115.71,13-Oct,9921,2018-04-16 20:37:54:824
0.5196,-8.9929,0.0646,1.1596,-9.7376,-0.0626,0.6648,0.6609,-0.591,0.9639,0.4655,0.2309,0,-9.3,24.3,28.6,137.44,77.88,-129.25,0,1010.02,46.483,30.44581,-84.30156,30.82,NaN,,2.06,412.90323,115.71,13-Oct,10022,2018-04-16 20:37:54:925
2.2746,-10.0105,-0.1556,0.735,-9.7322,0.9564,1.3887,-0.2376,-1.2652,0.8858,0.4093,0.5119,0,-9.6,27,25.1,108.26,83.2,-93.09,0,1010.01,46.483,30.445826,-84.30154,24.35,NaN,,1.89,412.90323,168.49,13-Oct,10122,2018-04-16 20:37:55:025
3.273,-10.111,0.6991,0.4166,-9.7179,1.2484,2.8564,-0.3931,-0.5493,0.0183,0.3445,0.336,0,-8.5,29.5,19.8,51.79,82.93,-37.55,0,1010.01,46.483,30.445826,-84.30154,24.35,NaN,,1.89,412.90323,168.49,13-Oct,10222,2018-04-16 20:37:55:125
5.2171,-11.6314,-0.8117,0.4776,-9.7732,0.6538,3.5999,-4.5183,-2.2124,-1.2963,-0.562,-0.0745,0,-8.1,29.8,19.2,51.79,82.93,-37.55,0,1009.99,46.483,30.445826,-84.30154,24.35,NaN,,1.89,412.90323,168.49,13-Oct,10321,2018-04-16 20:37:55:224
-4.0751,-12.0743,-3.0958,1.1087,-9.5025,-2.1549,-1.3217,-3.3332,3.2323,-2.386,0.6463,-0.3555,0,-7.6,29.5,20.1,52.78,85.26,-36.15,0,1009.99,46.875,30.445826,-84.30154,24.35,NaN,,1.89,412.90323,168.49,13-Oct,10422,2018-04-16 20:37:55:325
1.7191,-10.0224,-0.8931,1.1087,-9.5025,-2.1549,-1.3217,-3.3332,3.2323,-2.386,0.6463,-0.3555,0,-9.8,19.3,33.9,167.08,75.69,-152.77,0,1009.99,46.875,30.445826,-84.30154,24.35,NaN,,1.89,412.90323,168.49,13-Oct,10521,2018-04-16 20:37:55:424
-1.5036,-6.364,-1.0822,1.5215,-8.8826,-3.8671,-2.3858,1.8698,1.8463,-1.3696,-1.4062,-0.9884,0,-7.4,16.1,38.1,164.98,64.93,-158.52,0,1009.99,46.875,30.445826,-84.30154,24.35,NaN,,1.89,412.90323,168.49,13-Oct,10622,2018-04-16 20:37:55:525
-1.7358,-5.4877,-2.6074,1.6433,-8.4547,-4.6891,-3.3792,2.967,2.0817,0.2187,-0.303,-0.3629,0,-7.4,16.1,38.1,164.98,64.93,-158.52,0,1009.99,47.279,30.445826,-84.30154,24.35,NaN,,1.89,412.90323,168.49,13-Oct,10722,2018-04-16 20:37:55:625
1.7263,-7.1589,-4.0176,1.6242,-9.0212,-3.4857,2.5346,-0.7475,-3.4386,1.901,-0.391,0.4056,0,-8.1,16.6,37.6,168.46,59.56,-160.69,0,1009.99,47.279,30.445826,-84.30154,24.35,NaN,,1.89,412.90323,168.49,13-Oct,10822,2018-04-16 20:37:55:725
3.6776,-11.8995,-10.1302,2.1739,-8.979,-3.2897,-5.442,0.4745,0.1053,-0.1246,-1.7141,-0.6219,0,-7.4,18.4,35.7,160.96,66.91,-155.02,0,1009.99,47.279,30.445826,-84.30154,24.35,NaN,,1.89,412.90323,168.49,13-Oct,10921,2018-04-16 20:37:55:824
-8.7798,-2.4757,1.5156,2.2695,-9.0241,-3.0961,-11.0493,6.5484,4.6117,1.0971,-0.3091,0.5913,0,-7.7,19.9,34.2,151.21,66.29,-146.54,0,1009.99,48.829,30.445826,-84.30154,24.35,NaN,,1.89,412.90323,168.49,13-Oct,11022,2018-04-16 20:37:55:925
-3.6513,-6.0743,-2.028,2.2695,-9.0241,-3.0961,-11.0493,6.5484,4.6117,1.0971,-0.3091,0.5913,0,-7.9,21.8,32,147.4,66.96,-143.76,0,1010,48.829,30.445814,-84.301544,24.42,NaN,,3.3,412.90323,99.97,13-Oct,11122,2018-04-16 20:37:56:025
1.5347,-8.8971,-0.2466,1.4076,-9.5647,-1.6449,-3.7612,1.6372,1.075,0.8613,1.0348,0.3836,0,-7.7,23.7,29,149,77.25,-139.44,0,1010,48.829,30.445814,-84.301544,24.42,NaN,,3.3,412.90323,99.97,13-Oct,11222,2018-04-16 20:37:56:125
0.8859,-9.273,-0.0239,0.9888,-9.7427,-0.5223,1.2619,0.9389,1.0179,0.7917,0.2969,0.3665,0,-7.7,23.7,29,149,77.25,-139.44,0,1010,47.075,30.445814,-84.301544,24.42,NaN,,3.3,412.90323,99.97,13-Oct,11322,2018-04-16 20:37:56:225
0.6105,-9.9769,-0.0694,0.6835,-9.7697,0.5053,-0.334,0.3123,-0.5029,0.8234,0.4643,0.4398,0,-7.4,25.3,27,127.53,83.45,-117.85,0,1010,47.075,30.445814,-84.301544,24.42,NaN,,3.3,412.90323,99.97,13-Oct,11422,2018-04-16 20:37:56:325
0.5172,-9.9817,0.3184,0.2386,-9.723,1.2555,0.2786,-0.2587,-0.937,0.4313,0.6145,0.3873,0,-7.3,27.1,24.2,64.99,85.03,-53.53,0,1010.01,47.075,30.445814,-84.301544,24.42,NaN,,3.3,412.90323,99.97,13-Oct,11522,2018-04-16 20:37:56:425
3.1245,-12.1246,-0.5411,0.1162,-9.7418,1.1197,3.5207,-1.3533,-2.0079,-0.4875,0.4044,0.1246,0,-6.3,28.5,21.4,23,82.51,-10.76,0,1010.01,47.075,30.445814,-84.301544,24.42,NaN,,3.3,412.90323,99.97,13-Oct,11621,2018-04-16 20:37:56:524
-4.2738,-10.6665,-0.7662,0.1162,-9.7418,1.1197,3.5207,-1.3533,-2.0079,-0.4875,0.4044,0.1246,0,-5.6,28.9,20.1,23,82.51,-10.76,0,1010.02,46.934,30.445814,-84.301544,24.42,NaN,,3.3,412.90323,99.97,13-Oct,11722,2018-04-16 20:37:56:625
-0.6177,-11.301,2.0303,0.3962,-9.7607,-0.8615,-3.4034,-2.0359,-2.1984,-2.9957,-0.4753,-0.4655,0,-6.9,23.5,30.1,167.44,84.45,-155.3,0,1010.02,46.934,30.445814,-84.301544,24.42,NaN,,3.3,412.90323,99.97,13-Oct,11822,2018-04-16 20:37:56:725
0.182,-8.3033,-1.7742,0.9752,-9.1395,-3.4187,1.0073,-0.2652,1.9271,-1.6188,-1.058,-0.8515,0,-6.5,17.5,36.4,171.44,68.75,-164.08,0,1010.02,46.934,30.445814,-84.301544,24.42,NaN,,3.3,412.90323,99.97,13-Oct,11922,2018-04-16 20:37:56:825
-0.8524,-6.376,-1.4988,1.3364,-8.6429,-4.4368,-2.1887,2.2669,2.938,-0.5547,-1.1228,-0.8515,0,-6.5,17.5,36.4,171.44,68.75,-164.08,0,1010.02,46.281,30.445814,-84.301544,24.42,NaN,,3.3,412.90323,99.97,13-Oct,12022,2018-04-16 20:37:56:925
-0.7159,-5.4278,-3.1748,1.4043,-8.5404,-4.6108,-2.1202,3.1126,1.436,1.2682,-0.0098,0.0379,0,-5.6,16.2,37.2,168.94,61.8,-163.24,0,1010.01,46.281,30.445787,-84.30155,26.06,NaN,,2.76,412.90323,153.34,13-Oct,12121,2018-04-16 20:37:57:024
1.4222,-8.459,-5.7343,1.4249,-9.0753,-3.4319,1.4467,-4.6251,-8.4686,0.1271,0.292,-0.6439,0,-5.7,16.3,37.1,168.94,61.8,-163.24,0,1010.01,46.281,30.445787,-84.30155,26.06,NaN,,2.76,412.90323,153.34,13-Oct,12222,2018-04-16 20:37:57:125
-0.0455,-8.5907,-5.2913,1.9021,-9.0741,-3.1956,1.4467,-4.6251,-8.4686,0.1271,0.292,-0.6439,0,-5.1,20,34.2,149.03,67.71,-149.24,0,1010.01,48.451,30.445787,-84.30155,26.06,NaN,,2.76,412.90323,153.34,13-Oct,12322,2018-04-16 20:37:57:225
3.1772,-11.8014,-5.2746,1.703,-9.138,-3.1251,-0.5953,-4.2206,0.6359,0.9615,-0.3604,0.43,0,-5.2,21.2,32.5,149.03,67.71,-149.24,0,1010.02,48.451,30.445787,-84.30155,26.06,NaN,,2.76,412.90323,153.34,13-Oct,12422,2018-04-16 20:37:57:325
-5.9617,-4.7957,2.0016,1.1378,-9.5659,-1.8356,-7.8119,4.4284,4.7698,0.9041,-0.1429,1.0776,0,-5.5,22.8,30.6,151.52,68.72,-151.41,0,1010.02,48.451,30.445787,-84.30155,26.06,NaN,,2.76,412.90323,153.34,13-Oct,12522,2018-04-16 20:37:57:425
-2.7391,-7.2858,-1.2235,1.1378,-9.5659,-1.8356,-5.4539,1.5379,-0.559,1.0311,0.617,0.226,0,-5.5,22.8,30.6,151.52,68.72,-151.41,0,1010.02,47.158,30.445787,-84.30155,26.06,NaN,,2.76,412.90323,153.34,13-Oct,12622,2018-04-16 20:37:57:525
1.9657,-9.3927,1.008,0.7334,-9.7607,-0.6009,1.3902,0.3031,0.5974,0.6854,0.5192,0.2505,0,-5,24.2,27.6,152.87,77.28,-148.21,0,1010.02,47.158,30.445787,-84.30155,26.06,NaN,,2.76,412.90323,153.34,13-Oct,12722,2018-04-16 20:37:57:625
0.4453,-8.933,0.2682,0.5323,-9.7867,0.3282,0.457,-0.1764,-0.9404,0.9053,0.4484,0.4533,0,-4.8,25.7,24.3,136.94,84.45,-129.33,0,1010.01,47.158,30.445787,-84.30155,26.06,NaN,,2.76,412.90323,153.34,13-Oct,12823,2018-04-16 20:37:57:726
1.3647,-10.3385,-0.8164,0.1474,-9.7267,1.2411,0.457,-0.1764,-0.9404,0.9053,0.4484,0.4533,0,-4.6,27.3,21.3,17.54,82.68,-6.77,0,1010.01,47.158,30.445787,-84.30155,26.06,NaN,,2.76,412.90323,153.34,13-Oct,12921,2018-04-16 20:37:57:824
1.7957,-10.2427,1.348,-0.0156,-9.745,1.0974,1.803,-0.5207,0.0629,-0.0342,0.7001,0.3616,0,-4.1,28.4,18.7,15.9,82.68,-6.77,0,1010.01,46.925,30.445787,-84.30155,26.06,NaN,,2.76,412.90323,153.34,13-Oct,13022,2018-04-16 20:37:57:925
2.2913,-10.6809,-2.6289,0.1534,-9.7893,-0.5618,3.1655,-0.8025,-3.3259,-1.2938,0.1784,0.1515,0,-3.7,28.6,18.5,9.54,83.57,0.82,0,1010.01,46.925,30.44578,-84.30155,28.31,NaN,,1.58,412.90323,112.29,13-Oct,13121,2018-04-16 20:37:58:024
-5.4996,-12.0791,-3.2275,0.1534,-9.7893,-0.5618,-1.4682,-4.2246,4.433,-2.5009,0.9346,-0.4801,0,-3.7,28.6,18.5,9.54,83.57,0.82,0,1010.01,46.925,30.44578,-84.30155,28.31,NaN,,1.58,412.90323,112.29,13-Oct,13221,2018-04-16 20:37:58:124
1.8077,-10.1062,-2.1261,0.905,-9.1715,-3.3518,-1.333,0.4454,1.917,-1.1839,-1.2168,-1.1179,0,-5.3,20.5,31.3,173.62,86.6,-164.72,0,1010.01,47.453,30.44578,-84.30155,28.31,NaN,,1.58,412.90323,112.29,13-Oct,13322,2018-04-16 20:37:58:225
-1.0343,-7.1421,-0.9481,1.3219,-8.7095,-4.309,-3.7497,2.6899,1.8811,-0.1613,-0.6341,-0.4435,0,-6.3,15.3,36.6,172.58,69.27,-164.89,0,1009.99,47.453,30.44578,-84.30155,28.31,NaN,,1.58,412.90323,112.29,13-Oct,13422,2018-04-16 20:37:58:325
-1.3815,-5.186,-3.2945,1.3937,-8.5664,-4.5656,-3.7497,2.6899,1.8811,-0.1613,-0.6341,-0.4435,0,-5.7,15.8,36.3,168.99,62.64,-162.95,0,1009.99,47.453,30.44578,-84.30155,28.31,NaN,,1.58,412.90323,112.29,13-Oct,13521,2018-04-16 20:37:58:424
1.9896,-7.4965,-3.7782,1.3414,-9.0851,-3.4397,0.6507,1.3057,0.3326,1.2792,-0.3885,0.0195,0,-5.4,15.1,36.8,166.4,60.87,-163.03,0,1010,47.326,30.44578,-84.30155,28.31,NaN,,1.58,412.90323,112.29,13-Oct,13622,2018-04-16 20:37:58:525
-0.1508,-6.9434,-5.0471,1.4416,-9.0836,-3.403,-1.0356,-1.2229,-3.1338,0.0012,-0.9297,-0.4276,0,-4.7,17.9,33.6,162.4,67.88,-158.7,0,1010,47.326,30.44578,-84.30155,28.31,NaN,,1.58,412.90323,112.29,13-Oct,13722,2018-04-16 20:37:58:625
3.8883,-15.4814,-5.8109,1.4416,-9.0836,-3.403,-2.0329,-1.2784,-2.2177,0.5376,-0.3128,0.1515,0,-4.7,17.9,33.6,162.4,67.88,-158.7,0,1010.01,47.326,30.44578,-84.30155,28.31,NaN,,1.58,412.90323,112.29,13-Oct,13821,2018-04-16 20:37:58:724
-3.4909,-8.4781,-0.8093,1.2107,-9.0713,-3.5236,-4.9098,0.7253,2.2653,0.7807,-0.2712,0.876,0,-4,19.4,31.8,163.25,67.67,-161.04,0,1010.01,46.749,30.44578,-84.30155,28.31,NaN,,1.58,412.90323,112.29,13-Oct,13922,2018-04-16 20:37:58:825
0.419,-8.9474,-1.0271,0.9107,-9.4811,-2.3343,-1.4867,-0.1029,0.3428,0.8149,0.3861,-0.099,0,-3.5,20.5,30.6,160.15,67.67,-161.04,0,1010.02,46.749,30.44578,-84.30155,28.31,NaN,,1.58,412.90323,112.29,13-Oct,14022,2018-04-16 20:37:58:925
0.3376,-8.8756,-0.1053,0.962,-9.6986,-1.0867,-1.4867,-0.1029,0.3428,0.8149,0.3861,-0.099,0,-3.6,21.6,29.2,162.72,75.2,-158.69,0,1010.02,46.749,30.44578,-84.30155,28.31,NaN,,1.58,412.90323,112.29,13-Oct,14122,2018-04-16 20:37:59:025
0.2179,-8.7654,-1.1971,0.5192,-9.792,0.131,1.1341,-0.1747,0.0603,1.025,0.3848,0.5107,0,-4,23.2,26.5,142.2,81.49,-138.48,0,1010,46.749,30.44578,-84.30155,28.31,NaN,,1.58,412.90323,112.29,13-Oct,14222,2018-04-16 20:37:59:125
1.0822,-9.8668,0.2011,0.0571,-9.7516,1.0363,0.7747,0.27,-0.1786,0.8577,0.8149,0.474,0,-4,25.2,23,11.76,83.92,-3.15,0,1010,47.753,30.44578,-84.30155,28.31,NaN,,1.58,412.90323,112.29,13-Oct,14322,2018-04-16 20:37:59:225
1.6377,-10.3959,0.1437,0.0571,-9.7516,1.0363,0.6572,0.4044,-2.2079,0.347,0.9297,0.2358,0,-4,25.2,23,11.76,83.92,-3.15,0,1010.01,47.753,30.44578,-84.30155,28.31,NaN,,1.58,412.90323,112.29,13-Oct,14422,2018-04-16 20:37:59:325
3.8165,-12.3233,-2.1189,-0.2027,-9.7505,1.0276,4.0086,-2.5275,-2.5378,-1.4429,0.077,0.1723,0,-2.7,26.6,18.5,358.09,83.87,11.16,0,1010.01,47.753,30.44578,-84.30155,28.31,NaN,,1.58,412.90323,112.29,13-Oct,14522,2018-04-16 20:37:59:425
-3.1916,-14.4878,-0.2083,-0.116,-9.7677,-0.8652,4.0086,-2.5275,-2.5378,-1.4429,0.077,0.1723,0,-1.9,26.9,17.6,355.82,83.87,11.16,0,1010.01,47.037,30.44578,-84.30155,28.31,NaN,,1.58,412.90323,112.29,13-Oct,14622,2018-04-16 20:37:59:525
1.9585,-8.095,-0.7805,0.6224,-9.0775,-3.6579,-1.6008,-4.4805,2.509,-2.6145,1.3549,-0.3616,0,-3.9,18.3,30.9,195.85,84.89,172.36,0,1010.01,47.037,30.44578,-84.30155,28.31,NaN,,1.58,412.90323,112.29,13-Oct,14722,2018-04-16 20:37:59:625
-3.103,-7.0607,-0.2873,0.9873,-8.6276,-4.5563,-0.4371,1.353,2.5136,-1.2963,-1.653,-1.1582,0,-2.1,14.3,34,167.13,61.62,-167.77,0,1010,47.037,30.44578,-84.30155,28.31,NaN,,1.58,412.90323,112.29,13-Oct,14822,2018-04-16 20:37:59:725
-0.5315,-5.7582,-2.7654,0.9873,-8.6276,-4.5563,-3.5205,4.0415,2.1327,0.3714,-0.0586,-0.3934,0,-2.1,14.3,34,167.13,61.62,-167.77,0,1010,47.056,30.44578,-84.30155,28.31,NaN,,1.58,412.90323,112.29,13-Oct,14922,2018-04-16 20:37:59:825
4.7862,-14.4997,-10.5372,1.2827,-8.746,-4.2464,-0.0289,1.3279,-0.52,1.642,-0.639,0.4643,0,-2.3,14.9,33.9,160.82,63.11,-163.19,0,1010,47.056,30.44578,-84.30155,28.31,NaN,,1.58,412.90323,112.29,13-Oct,15022,2018-04-16 20:37:59:925
-2.9066,-8.605,-2.7534,1.0657,-9.3175,-2.8667,-4.4217,0.5299,0.4756,-0.0489,-2.0916,-0.5596,0,-1.2,16.8,31.2,160.82,63.11,-163.19,0,1010,47.056,30.445663,-84.30161,34.92,NaN,,2.69,77.41935,120.41,13-Oct,15122,2018-04-16 20:38:00:025
-6.2706,3.2323,6.929,1.3252,-9.1491,-3.2723,-4.4217,0.5299,0.4756,-0.0489,-2.0916,-0.5596,0,-1.4,18.9,29.2,155.62,71.83,-159.61,0,1010.01,46.133,30.445663,-84.30161,34.92,NaN,,2.69,77.41935,120.41,13-Oct,15221,2018-04-16 20:38:00:124
4.5036,-13.2236,0.012,1.1872,-9.4803,-2.21,-12.6367,7.4741,3.2728,1.5846,-0.1368,0.2663,0,-1.7,20.3,27.7,153.95,68.9,-157.95,0,1010.01,46.133,30.445663,-84.30161,34.92,NaN,,2.69,77.41935,120.41,13-Oct,15322,2018-04-16 20:38:00:225
3.7135,-12.8596,-0.5411,0.5564,-9.7503,-0.89,-1.9104,1.1137,1.5647,1.2511,1.295,0.595,0,-1.2,21.7,25.5,147.23,83.86,-147.99,0,1010.02,46.133,30.445663,-84.30161,34.92,NaN,,2.69,77.41935,120.41,13-Oct,15422,2018-04-16 20:38:00:325
0.8715,-9.7567,-0.8907,0.5564,-9.7503,-0.89,0.5643,0.1056,0.7991,1.0287,-0.2028,0.3335,0,-1.2,21.7,25.5,147.23,83.86,-147.99,0,1010.02,46.133,30.445663,-84.30161,34.92,NaN,,2.69,77.41935,120.41,13-Oct,15522,2018-04-16 20:38:00:425
0.1389,-9.9075,-0.158,0.3222,-9.7969,0.2935,0.055,-0.1372,-0.9972,1.0348,-0.0012,0.4936,0,-0.5,24.6,21.5,45.63,87.45,-47.67,0,1010.01,47.527,30.445663,-84.30161,34.92,NaN,,2.69,77.41935,120.41,13-Oct,15622,2018-04-16 20:38:00:525
0.3927,-9.273,-1.3911,-0.1731,-9.72,1.2895,2.3788,-1.0854,-0.2567,-0.2553,0.43,0.2334,0,1.2,27,16.6,41.65,87.45,-47.67,0,1010.01,47.527,30.445663,-84.30161,34.92,NaN,,2.69,77.41935,120.41,13-Oct,15721,2018-04-16 20:38:00:624
1.2354,-11.3513,-1.8484,-0.1436,-9.7628,0.9146,3.0647,-3.7217,-1.7716,-1.6664,-0.0648,-0.0525,0,1.8,27.8,14.6,345.87,84.58,8.92,0,1010,47.527,30.445663,-84.30161,34.92,NaN,,2.69,77.41935,120.41,13-Oct,15822,2018-04-16 20:38:00:725
-6.2275,-10.9562,-2.9258,0.0538,-9.7502,-1.049,3.0647,-3.7217,-1.7716,-1.6664,-0.0648,-0.0525,0,2.7,28.2,14.1,160.94,83.85,-177.06,0,1010,47.963,30.445663,-84.30161,34.92,NaN,,2.69,77.41935,120.41,13-Oct,15922,2018-04-16 20:38:00:825
0.6776,-9.7447,-1.8149,0.4239,-9.1814,-3.4194,-1.3109,-3.3981,4.6382,-2.0293,1.058,-0.0648,0,0.5,22,27.5,160.94,83.85,-177.06,0,1009.99,47.963,30.445583,-84.30164,122.83,NaN,,0,25.806452,,13-Nov,16022,2018-04-16 20:38:00:925
-2.2027,-7.6904,-1.8532,0.5909,-8.8488,-4.1855,-1.3689,1.2398,2.0028,-1.2193,-1.0214,-0.8577,0,2.2,17.8,30.5,165.39,69.43,-172.93,0,1009.99,47.963,30.445583,-84.30164,122.83,NaN,,0,25.806452,,13-Nov,16122,2018-04-16 20:38:01:025
-1.4126,-4.8604,-2.8899,0.5909,-8.8488,-4.1855,-2.0948,3.9622,1.337,0.3824,-0.1588,-0.0929,0,1.5,18.6,30.5,165.39,69.43,-172.93,0,1009.99,48.526,30.445583,-84.30164,122.83,NaN,,0,25.806452,,13-Nov,16222,2018-04-16 20:38:01:125
0.8117,-8.9235,-4.5036,0.6366,-8.9994,-3.8438,0.495,-1.5281,-3.2565,1.5113,-0.5156,0.121,0,2.2,18.4,31.2,161.15,66.59,-170.6,0,1009.99,48.526,30.445583,-84.30164,122.83,NaN,,0,25.806452,,13-Nov,16322,2018-04-16 20:38:01:225
-1.0152,-9.9937,-8.5643,0.4913,-9.4502,-2.5735,0.495,-1.5281,-3.2565,1.5113,-0.5156,0.121,0,2.7,22.3,26.6,157.29,74.5,-169.19,0,1009.99,48.526,30.445583,-84.30164,122.83,NaN,,0,25.806452,,13-Nov,16422,2018-04-16 20:38:01:325
5.0591,-16.8916,-5.5978,0.8695,-9.3342,-2.8787,-4.2565,-0.2047,-0.7988,-0.3372,-1.1533,-0.4606,0,2.7,22.3,26.6,157.29,74.5,-169.19,0,1009.99,47.927,30.445583,-84.30164,122.83,NaN,,0,25.806452,,13-Nov,16522,2018-04-16 20:38:01:425
3.8069,-20.4782,4.1589,0.7431,-9.6105,-1.8045,-10.8307,8.3951,3.4171,1.4319,-0.441,0.3677,0,3,23.2,26.2,146.69,72.14,-163.19,0,1010,47.927,30.445583,-84.30164,122.83,NaN,,0,25.806452,,13-Nov,16621,2018-04-16 20:38:01:524
-4.8652,-5.4829,-1.8891,0.2471,-9.7991,-0.2942,-5.5541,4.2454,-0.8619,1.2266,0.2419,0.2773,0,2.5,25,24.8,143.41,78.52,-157.62,0,1010,47.927,30.445583,-84.30164,122.83,NaN,,0,25.806452,,13-Nov,16722,2018-04-16 20:38:01:625
0.9625,-8.6745,-0.0168,0.2471,-9.7991,-0.2942,0.7329,0.2295,-0.3088,0.7611,0.3103,0.0208,0,2.3,28.7,19.4,131.38,87.75,-139.97,0,1010,47.927,30.445583,-84.30164,122.83,NaN,,0,25.806452,,13-Nov,16822,2018-04-16 20:38:01:725
-0.5698,-8.7559,0.3137,0.1974,-9.7882,0.5679,0.3228,-0.0305,0.8064,0.9175,0.4777,0.4801,0,2.4,29.8,18.2,11.67,86.49,-19.16,0,1010,45.71,30.445583,-84.30164,122.83,NaN,,0,25.806452,,13-Nov,16922,2018-04-16 20:38:01:825
0.9697,-9.3832,-0.4142,-0.2419,-9.683,1.5331,1.0587,-1.2246,-1.2713,0.2847,0.6439,0.3176,0,2.9,31.8,14.9,344.59,80.89,8.97,0,1010,45.71,30.44559,-84.301636,123.53,NaN,,0,25.806452,,13-Dec,17021,2018-04-16 20:38:01:924
2.4326,-10.5204,0,-0.4629,-9.662,1.6128,1.0587,-1.2246,-1.2713,0.2847,0.6439,0.3176,0,2.9,31.8,14.9,344.59,80.89,8.97,0,1010,45.71,30.44559,-84.301636,123.53,NaN,,0,25.806452,,13-Dec,17121,2018-04-16 20:38:02:024
1.8963,-11.3584,-0.419,-0.5786,-9.7454,0.9287,2.4262,-1.6675,-1.8241,-0.1466,0.7367,0.4667,0,3.5,32.9,12.4,335.8,80.15,16.01,0,1009.99,43.597,30.44559,-84.301636,123.53,NaN,,0,25.806452,,13-Dec,17222,2018-04-16 20:38:02:125
-3.6585,-10.6018,-0.5267,-0.5786,-9.7454,0.9287,-6.7439,0.0103,-3.3867,-2.4398,-0.3653,-0.9151,0,4,33.1,12.7,320.69,83.59,31.93,0,1009.99,43.597,30.44559,-84.301636,123.53,NaN,,0,25.806452,,13-Dec,17322,2018-04-16 20:38:02:225
0.6129,-9.2515,-1.4797,-0.0561,-9.6361,-1.8201,0.4203,-1.0991,1.911,-1.4404,0.2419,-0.5473,0,1.1,25.6,28.3,179.66,79.3,178.23,0,1009.99,43.597,30.44559,-84.301636,123.53,NaN,,0,25.806452,,13-Dec,17422,2018-04-16 20:38:02:325
-1.937,-6.5268,-0.6896,0.4062,-9.102,-3.6274,-2.4775,2.3726,3.3943,-0.9395,-0.7953,-0.7587,0,0.8,20.7,33.5,168.48,68.15,-173.61,0,1009.99,45.939,30.44559,-84.301636,123.53,NaN,,0,25.806452,,13-Dec,17522,2018-04-16 20:38:02:425
-0.9386,-5.3895,-1.8723,0.5779,-8.7207,-4.4481,-1.3772,2.9277,2.3285,0.9884,0.0232,0.1344,0,2,21,34,162.47,62.78,-172.6,0,1009.98,45.939,30.4456,-84.301636,122.21,NaN,,0,25.806452,,13-Dec,17622,2018-04-16 20:38:02:525
3.3376,-12.6825,-9.6633,0.3358,-9.1551,-3.4988,-1.3772,2.9277,2.3285,0.9884,0.0232,0.1344,0,2,21,34,162.47,62.78,-172.6,0,1009.98,45.939,30.4456,-84.301636,122.21,NaN,,0,25.806452,,13-Dec,17721,2018-04-16 20:38:02:624
-4.4653,-6.0216,-3.9577,0.8717,-9.2495,-3.1395,3.3441,-5.8406,-9.7437,0.3079,0.2871,-0.9102,0,3,22.6,31.5,164.11,69,-174.52,0,1009.98,48.593,30.4456,-84.301636,122.21,NaN,,0,25.806452,,13-Dec,17822,2018-04-16 20:38:02:725
1.4485,-8.8468,3.9937,0.8194,-9.1374,-3.4649,-0.5966,-5.5958,-2.3003,0.4337,0.1197,-0.0709,0,4.2,24.8,29.4,145.73,70.59,-164.48,0,1009.98,48.593,30.4456,-84.301636,122.21,NaN,,0,25.806452,,13-Dec,17922,2018-04-16 20:38:02:825
2.8899,-16.3218,2.7007,0.8194,-9.1374,-3.4649,2.3232,-6.8903,5.3268,1.4233,1.1387,1.4368,0,3.7,26,28.4,145.59,68.71,-166.7,0,1010.04,48.593,30.4456,-84.301636,122.21,NaN,,0,25.806452,,13-Dec,18022,2018-04-16 20:38:02:925
-0.0335,-10.6976,0.2155,0.0102,-9.665,-1.6604,1.3431,-1.6122,0.1311,1.0605,0.5962,0.3189,0,3.8,27.3,26.9,169.29,80.25,-179.65,0,1010.04,48.593,30.4456,-84.301636,122.21,NaN,,0,25.806452,,13-Dec,18122,2018-04-16 20:38:03:025
1.5635,-9.8884,-0.2682,-0.2732,-9.8009,-0.1928,0.2039,0.3322,-1.1362,0.5119,0.1967,-0.0244,0,4,30.5,22.5,226.82,88.05,125.22,0,1010.02,47.876,30.4456,-84.301636,122.21,NaN,,0,25.806452,,13-Dec,18222,2018-04-16 20:38:03:125
-0.4956,-9.4287,-0.1077,-0.1629,-9.7987,0.36,0.2039,0.3322,-1.1362,0.5119,0.1967,-0.0244,0,4,30.5,22.5,226.82,88.05,125.22,0,1010.02,47.876,30.4456,-84.301636,122.21,NaN,,0,25.806452,,13-Dec,18322,2018-04-16 20:38:03:225
-0.6919,-9.0958,0.7614,-0.5531,-9.7188,1.1874,-0.4084,0.6827,0.0767,0.7819,0.4423,0.3445,0,4.4,32.1,20.6,326.74,87.69,24.35,0,1010.03,47.876,30.4456,-84.301636,122.21,NaN,,0,25.806452,,13-Dec,18422,2018-04-16 20:38:03:325
-2.0184,-9.6202,-1.5922,-0.5531,-9.7188,1.1874,0.2909,-0.143,-0.7056,0.3958,0.5266,0.3604,0,4.3,33.7,17.8,329.47,82.32,24.98,0,1010.03,49.702,30.4456,-84.301636,122.21,NaN,,0,25.806452,,13-Dec,18522,2018-04-16 20:38:03:425
2.7893,-14.3968,0.4669,-0.7716,-9.6654,1.4676,3.4125,-2.9137,-3.1009,-0.5877,0.4056,0.2358,0,4.8,34.8,15.7,325.97,80.27,27.73,0,1010.03,49.702,30.445608,-84.30162,119.52,NaN,,0,25.806452,,13 / 14,18622,2018-04-16 20:38:03:525
-7.4725,-11.6601,-1.3121,-0.7831,-9.7697,0.3299,-7.0824,-1.9292,-0.1606,-2.9493,-0.1307,-0.5938,0,5,34.9,16.1,285.51,85.03,67.16,0,1010.03,49.702,30.445608,-84.30162,119.52,NaN,,0,25.806452,,13 / 14,18722,2018-04-16 20:38:03:625
-0.0072,-9.862,-1.2043,-0.094,-9.4445,-2.6385,-0.2087,-0.1152,2.1474,-1.9645,-1.0739,-0.7538,0,5.1,26.2,29,169.35,74.38,177.96,0,1010.02,48.089,30.445608,-84.30162,119.52,NaN,,0,25.806452,,13 / 14,18822,2018-04-16 20:38:03:725
-0.6369,-7.858,0.1293,0.263,-8.8809,-4.1509,-0.2087,-0.1152,2.1474,-1.9645,-1.0739,-0.7538,0,5.1,26.2,29,169.35,74.38,177.96,0,1010.02,48.089,30.445608,-84.30162,119.52,NaN,,0,25.806452,,13 / 14,18921,2018-04-16 20:38:03:824
-0.2897,-5.3273,-2.2027,0.4885,-8.6422,-4.6092,-3.2172,2.1942,2.6841,-0.6304,-1.2193,-0.8845,0,5.3,21.1,33.9,161.66,64.9,-176.37,0,1010,48.089,30.445608,-84.30162,119.52,NaN,,0,25.806452,,13 / 14,19022,2018-04-16 20:38:03:925
-0.8572,-6.4933,-4.2977,0.4885,-8.6422,-4.6092,-1.1015,1.4377,2.5043,1.2181,-0.8332,-0.3629,0,5.1,21.8,33.3,154.92,61.79,-173.95,0,1010,48.614,30.445608,-84.30162,119.52,NaN,,0,25.806452,,13 / 14,19122,2018-04-16 20:38:04:025
2.3105,-14.2651,-9.8692,0.5263,-9.1458,-3.4996,1.7123,-4.9029,-7.0123,0.1747,-0.0916,-0.4398,0,6.1,24.9,30.1,149.74,68.85,-171.45,0,1009.99,48.614,30.445608,-84.30162,119.52,NaN,,0,25.806452,,13 / 14,19222,2018-04-16 20:38:04:125
-3.3352,-11.3201,-1.8843,0.8108,-9.2652,-3.1096,-1.4895,-8.829,2.5225,1.1264,-0.463,0.5693,0,6.7,26.8,26.9,136.2,70.87,-165.39,0,1009.99,48.614,30.445608,-84.30162,119.52,NaN,,0,25.806452,,13 / 14,19321,2018-04-16 20:38:04:224
-3.4501,0.3591,8.0831,0.7764,-9.2533,-3.1533,-1.4895,-8.829,2.5225,1.1264,-0.463,0.5693,0,6.7,26.8,26.9,136.2,70.87,-165.39,0,1010.01,48.614,30.445608,-84.30162,119.52,NaN,,0,25.806452,,13 / 14,19422,2018-04-16 20:38:04:325
-2.3608,-7.8077,-2.672,0.1167,-9.6972,-1.4563,-3.3417,-1.5302,4.908,1.7397,1.3341,1.3781,0,6.8,28,25.8,134.9,70.66,-166.17,0,1010.01,48.969,30.445608,-84.30162,119.52,NaN,,0,25.806452,,13 / 14,19522,2018-04-16 20:38:04:425
3.4118,-12.0001,-0.0766,-0.2156,-9.803,-0.1546,1.0377,-1.8663,1.6017,1.0702,1.3134,0.5693,0,6.9,29.4,23.6,154.66,81.43,-175.42,0,1010.01,48.969,30.445612,-84.301605,114.09,NaN,,0,25.806452,,13 / 14,19621,2018-04-16 20:38:04:524
0.7614,-10.2451,-1.2331,-0.2156,-9.803,-0.1546,0.9682,-0.4435,-1.4684,0.7599,0.5644,0.055,0,6.6,31.9,19.5,216.46,88.45,125.65,0,1010.01,48.969,30.445612,-84.301605,114.09,NaN,,0,25.806452,,13 / 14,19721,2018-04-16 20:38:04:624
-0.1628,-9.4981,0.1891,-0.2039,-9.7879,0.5711,0.8707,0.1346,-0.6619,0.7624,0.5522,0.4203,0,6.3,33.4,18.1,325.37,86.45,19.65,0,1010,47.95,30.445612,-84.301605,114.09,NaN,,0,25.806452,,13 / 14,19822,2018-04-16 20:38:04:725
0.1987,-10.5372,0.2275,-0.6901,-9.7027,1.2455,0.188,0.8593,-1.1324,0.1161,0.6573,0.5229,0,6.1,35,16.1,320.99,81.65,28.99,0,1010,47.95,30.445612,-84.301605,114.09,NaN,,0,25.806452,,13 / 14,19921,2018-04-16 20:38:04:824
2.2506,-12.613,-0.5459,-1.0299,-9.6741,1.2332,2.4647,-4.5228,-2.48,0.1161,-0.5718,0.0183,0,6.3,35.9,14.6,313.43,80.57,39.87,0,1009.99,47.95,30.445612,-84.301605,114.09,NaN,,0,25.806452,,13 / 14,20021,2018-04-16 20:38:04:924
-5.9306,-11.3082,-1.4701,-0.7611,-9.775,-0.1985,2.4647,-4.5228,-2.48,-1.2291,-0.5718,0.0183,0,6.3,35.9,14.6,313.43,80.57,39.87,0,1009.99,48.922,30.445612,-84.301605,114.09,NaN,,0,25.806452,,13 / 14,20122,2018-04-16 20:38:05:025
0.0862,-12.8285,3.2849,-0.0569,-9.2929,-3.132,-0.1295,-5.1651,4.381,-2.6121,1.5284,-0.2529,0,5.6,32.6,21.2,245.88,85.4,104.62,0,1010,48.922,30.445612,-84.301605,114.09,NaN,,0,25.806452,,13 / 14,20222,2018-04-16 20:38:05:125
-1.3959,-6.8716,-1.1157,0.1392,-8.6773,-4.5667,-1.4846,2.1001,2.8428,-1.8583,-1.339,-0.8662,0,2.8,23.5,35.9,174.94,71.37,178.96,0,1010,48.922,30.445612,-84.301605,114.09,NaN,,0,25.806452,,13 / 14,20322,2018-04-16 20:38:05:225
-2.7223,-6.0024,-1.2977,0.1392,-8.6773,-4.5667,-2.6076,3.5413,2.4309,0.0452,-0.4423,-0.3567,0,5.3,21.4,37.7,165.43,62.23,-178.25,0,1009.98,47.555,30.445612,-84.301605,114.09,NaN,,0,25.806452,,13 / 14,20422,2018-04-16 20:38:05:325
0.0215,-6.6058,-1.7837,0.2693,-8.6423,-4.627,0.7032,0.6246,-1.465,1.6835,-0.7184,-0.1698,0,4.2,21.7,36.7,164.36,61.8,-176.67,0,1009.98,47.555,30.445612,-84.301605,114.09,NaN,,0,25.806452,,13 / 14,20522,2018-04-16 20:38:05:425
1.6832,-14.7703,-10.1948,0.3695,-9.2875,-3.1265,0.7032,0.6246,-1.465,1.6835,-0.7184,-0.1698,0,4.2,21.7,36.7,164.36,61.8,-176.67,0,1009.99,47.555,30.44562,-84.3016,106.85,NaN,,1.9,25.806452,,13 / 14,20622,2018-04-16 20:38:05:525
-0.2825,-3.115,-2.9138,0.4415,-9.0674,-3.7091,-1.4832,3.5016,-0.8197,-1.069,-2.3201,-0.6646,0,4.7,25.4,33.1,158.52,71.27,-173.26,0,1009.99,47.555,30.44562,-84.3016,106.85,NaN,,1.9,25.806452,,13 / 14,20721,2018-04-16 20:38:05:624
-3.3687,-21.4096,-10.1493,0.7,-9.3807,-2.7715,-3.6989,-12.1099,-7.0547,0.4484,0.6035,-0.551,0,6,26.5,30.9,151.23,67.61,-173.21,0,1010.02,50.928,30.44562,-84.3016,106.85,NaN,,1.9,25.806452,,13 / 14,20822,2018-04-16 20:38:05:725
-8.3704,-6.8931,-0.0287,0.7,-9.3807,-2.7715,6.8201,-7.4812,0.8383,1.6518,1.3195,0.8674,0,6.2,28,29,143.29,73.05,-165.82,0,1010.02,50.928,30.44562,-84.3016,106.85,NaN,,1.9,25.806452,,13 / 14,20922,2018-04-16 20:38:05:825
0.9026,-9.182,0.8356,-0.1042,-9.7476,-1.0691,2.6658,0.1459,0.0768,0.7917,0.3873,0.4203,0,6.4,29.9,25.7,171.48,83.71,174.43,0,1010.01,50.928,30.44562,-84.3016,106.85,NaN,,1.9,25.806452,,13 / 14,21022,2018-04-16 20:38:05:925
-1.336,-9.5723,0.1173,-0.4094,-9.7981,0.0205,-0.8918,0.2108,-0.3951,0.8393,0.4032,0.2187,0,6.2,32,22.5,261.45,87.6,87.13,0,1010.01,47.224,30.44562,-84.3016,106.85,NaN,,1.9,25.806452,,13 / 14,21122,2018-04-16 20:38:06:025
0.8476,-9.7471,-1.178,-0.6856,-9.7325,0.9889,-0.8918,0.2108,-0.3951,0.8393,0.4032,0.2187,0,6.2,32,22.5,261.45,87.6,87.13,0,1010.02,47.224,30.44562,-84.3016,106.85,NaN,,1.9,25.806452,,13 / 14,21222,2018-04-16 20:38:06:125
2.9665,-11.6338,0.5315,-1.0648,-9.6769,1.1804,1.2454,-0.2658,-1.8339,0.485,0.9371,0.3348,0,6.2,33.8,19.4,315.93,82.95,34.73,0,1010.02,47.224,30.44562,-84.3016,106.85,NaN,,1.9,25.806452,,13 / 14,21322,2018-04-16 20:38:06:225
3.3664,-12.7926,-1.1014,-1.1131,-9.7399,0.2543,1.8959,-2.5973,-2.5691,-0.4435,0.485,0.3848,0,6.7,34.9,17.3,309.15,80.67,42.05,0,1010.01,48.777,30.44562,-84.3016,106.85,NaN,,1.9,25.806452,,13 / 14,21422,2018-04-16 20:38:06:325
-5.708,-12.5891,0.0024,-1.1131,-9.7399,0.2543,-6.6454,-1.5629,-0.8613,-3.0665,0.1454,-0.7379,0,6.8,34.5,18.3,273.83,83.31,77.13,0,1010.01,48.777,30.44562,-84.3016,106.85,NaN,,1.9,25.806452,,13 / 14,21521,2018-04-16 20:38:06:424
0.2394,-9.6034,-1.6113,-0.3699,-9.4115,-2.7306,0.0333,0.184,2.2693,-1.6848,-1.4978,-0.887,0,2.9,25.9,30.9,183.01,73.68,172.29,0,1010.01,48.777,30.445625,-84.30158,99.78,NaN,,0,25.806452,,13 / 14,21622,2018-04-16 20:38:06:525
-3.4597,-6.9027,-0.8164,0.0635,-8.9523,-4.0028,-3.3307,2.2537,4.0401,-1.6848,-1.4978,-0.887,0,4.6,21.7,35,166.36,65.91,-179.09,0,1010.01,48.695,30.445625,-84.30158,99.78,NaN,,0,25.806452,,13 / 14,21722,2018-04-16 20:38:06:625
-1.2115,-4.8628,-3.3496,0.34,-8.7474,-4.4202,-3.3307,2.2537,4.0401,0.6145,-0.1185,-0.2297,0,4.3,22.1,34.9,162.3,63.12,-175.6,0,1009.99,48.695,30.445625,-84.30158,99.78,NaN,,0,25.806452,,13 / 14,21822,2018-04-16 20:38:06:725
0.6896,-8.775,-3.9625,0.216,-9.3161,-3.0549,-0.8068,1.5243,1.9235,1.5577,-0.639,-0.1564,0,5.4,22.6,33.3,162.88,71.8,-175.96,0,1009.99,48.695,30.445625,-84.30158,99.78,NaN,,0,25.806452,,13 / 14,21922,2018-04-16 20:38:06:825
-2.4972,-8.3321,-5.7846,0.5748,-9.2692,-3.1498,-0.9643,-2.5035,-9.7917,-0.2248,-1.3354,0.1454,0,5.4,22.6,33.3,162.88,71.8,-175.96,0,1010,48.695,30.445625,-84.30158,99.78,NaN,,0,25.806452,,13 / 14,22022,2018-04-16 20:38:06:925
9.6465,-8.7223,1.5252,0.5748,-9.2692,-3.1498,9.414,0.4903,4.8782,-0.2248,-1.3354,0.1454,0,6.3,24.6,30.7,149.72,70.94,-169.66,0,1010,49.274,30.445625,-84.30158,99.78,NaN,,0,25.806452,,13 / 14,22122,2018-04-16 20:38:07:025
6.9793,-17.0353,1.2259,0.7122,-9.2944,-3.0458,-0.2655,1.4192,1.7176,1.6335,0.0745,0.8931,0,6.6,25.4,29,142.17,71.4,-166.84,0,1010.02,49.274,30.445625,-84.30158,99.78,NaN,,0,25.806452,,13 / 14,22221,2018-04-16 20:38:07:124
0.0718,-10.9466,0.3376,0.053,-9.6951,-1.4738,-1.3178,2.4941,0.1193,1.3903,1.3317,0.518,0,6.8,26,27.6,161.2,81.35,-177.94,0,1010.02,49.274,30.445625,-84.30158,99.78,NaN,,0,25.806452,,13 / 14,22322,2018-04-16 20:38:07:225
-0.3089,-8.8181,1.0271,-0.2426,-9.8033,-0.079,-1.3178,2.4941,0.1193,1.1423,0.1686,0.4117,0,6.3,27.9,24.8,239.88,88.51,108.04,0,1010,47.86,30.445625,-84.30158,99.78,NaN,,0,25.806452,,13 / 14,22422,2018-04-16 20:38:07:325
0.1939,-9.7854,-1.3552,-0.492,-9.7336,1.0885,-0.6701,0.8047,-0.9819,1.0201,0.2712,0.4068,0,6.3,30.4,20.4,324.61,83,24.32,0,1010,47.86,30.445625,-84.30158,99.78,NaN,,0,25.806452,,13 / 14,22521,2018-04-16 20:38:07:424
1.5084,-11.04,1.4294,-0.9272,-9.6644,1.3815,0.9688,-0.1117,-2.7659,-0.0867,0.3384,0.4337,0,6.3,30.4,20.4,324.61,83,24.32,0,1010,47.86,30.445625,-84.30158,99.78,NaN,,0,25.806452,,13 / 14,22621,2018-04-16 20:38:07:524
1.2139,-13.791,-1.767,-0.9272,-9.6644,1.3815,1.1533,-2.8653,-2.3755,-0.0867,0.3384,0.4337,0,6.4,31.5,18.4,324.61,83,24.32,0,1010,46.461,30.44563,-84.301575,93.13,NaN,,0,25.806452,,13 / 14,22722,2018-04-16 20:38:07:625
-5.3751,-11.6697,-2.0734,-0.966,-9.7404,0.602,-4.586,-1.9274,-1.2768,-1.7862,-0.2175,-0.237,0,7.1,32,16.9,290.4,83.33,58.07,0,1010,46.461,30.44563,-84.301575,93.13,NaN,,0,25.806452,,13 / 14,22822,2018-04-16 20:38:07:725
0,-10.0296,-1.6329,-0.5624,-9.4796,-2.4476,1.2008,-0.5353,0.5101,-2.094,1.5821,-0.4142,0,6.5,26.5,26.3,290.4,83.33,58.07,0,1010,46.461,30.44563,-84.301575,93.13,NaN,,0,25.806452,,13 / 14,22922,2018-04-16 20:38:07:825
-2.4182,-6.7135,-1.1852,0.0443,-8.9576,-3.9911,1.2008,-0.5353,0.5101,-1.5113,-1.091,-1.2046,0,5.8,20.9,32.1,182.9,75.16,167.06,0,1009.99,48.916,30.44563,-84.301575,93.13,NaN,,0,25.806452,,13 / 14,23022,2018-04-16 20:38:07:925
-2.7151,-3.9027,-1.2522,0.1605,-8.6175,-4.6779,-2.517,4.4723,4.327,0.5999,-0.5449,-0.0501,0,6.2,19.2,32.7,164.1,65.98,-179.36,0,1009.99,48.916,30.44563,-84.301575,93.13,NaN,,0,25.806452,,13 / 14,23122,2018-04-16 20:38:08:025
-0.1053,-7.5084,-5.5284,-0.0611,-9.2998,-3.1112,-1.0073,2.1495,0.5307,1.4416,-0.3201,-0.1833,0,6.5,19.2,33.1,157.58,61.49,-178.04,0,1009.99,48.916,30.44563,-84.301575,93.13,NaN,,0,25.806452,,13 / 14,23222,2018-04-16 20:38:08:125
-3.7063,-6.0551,-5.696,-0.0611,-9.2998,-3.1112,-4.0684,3.2716,-2.6876,1.4416,-0.3201,-0.1833,0,6.5,19.2,33.1,157.58,61.49,-178.04,0,1009.99,48.916,30.44563,-84.301575,93.13,NaN,,0,25.806452,,13 / 14,23322,2018-04-16 20:38:08:225
2.1165,-17.052,-6.3783,0.2756,-9.1254,-3.5806,1.3707,5.6066,13.7361,0.6329,-0.4264,0.3726,0,7.6,21.9,30.6,161.86,71.5,178.88,0,1010,46.877,30.44563,-84.301575,93.13,NaN,,0,25.806452,,13 / 14,23422,2018-04-16 20:38:08:325
4.9226,-17.2938,1.9777,0.3875,-9.3648,-2.8845,-3.1422,2.9241,-0.7394,1.4441,0.722,1.3854,0,7.2,23.3,28.8,152.89,68.52,-175.6,0,1010,46.877,30.44563,-84.301575,93.13,NaN,,0,25.806452,,13 / 14,23522,2018-04-16 20:38:08:425
1.9825,-11.7583,0.3232,-0.3396,-9.7467,-1.0277,-3.1422,2.9241,-0.7394,1.2743,1.0128,0.5486,0,7.1,24.7,26.8,148.58,72.74,-172.35,0,1010.01,46.877,30.445627,-84.30155,88.41,NaN,,2.26,19.35484,,13 / 14,23621,2018-04-16 20:38:08:524
0.4405,-8.9785,0.3951,-0.4274,-9.7954,0.1953,0.8134,1.0283,-0.0967,1.1215,-0.0269,0.0867,0,6.7,27.4,22.9,181.56,83.66,161.72,0,1010.01,47.176,30.445627,-84.30155,88.41,NaN,,2.26,19.35484,,13 / 14,23721,2018-04-16 20:38:08:624
-1.0655,-9.2898,-0.3687,-0.8515,-9.6952,1.2037,-0.5071,0.4724,-1.1161,1.0507,0.3738,0.4985,0,7.3,29.5,18.7,278.36,87.25,65.44,0,1010.03,47.176,30.445627,-84.30155,88.41,NaN,,2.26,19.35484,,13 / 14,23822,2018-04-16 20:38:08:725
-0.2682,-9.8931,-0.9769,-0.8515,-9.6952,1.2037,0.7367,-0.1829,-0.985,1.0507,0.3738,0.4985,0,7.3,29.5,18.7,278.36,87.25,65.44,0,1010.03,47.176,30.445627,-84.30155,88.41,NaN,,2.26,19.35484,,13 / 14,23922,2018-04-16 20:38:08:825
-0.3041,-10.5827,-1.8891,-0.9952,-9.6877,1.1523,3.0158,-4.2277,-2.4382,-0.0122,0.9652,0.0819,0,8.6,30.7,14.7,305.99,81.35,35.27,0,1010.04,47.656,30.445627,-84.30155,88.41,NaN,,2.26,19.35484,,13 / 14,24022,2018-04-16 20:38:08:925
-3.1628,-13.7216,0.2059,-0.9476,-9.7513,-0.4284,-2.5203,-4.1766,2.3623,-2.6793,-0.1478,-0.6671,0,9.5,30.8,13.9,297.82,81.07,40.82,0,1010.04,47.656,30.445627,-84.30155,88.41,NaN,,2.26,19.35484,,13 / 14,24122,2018-04-16 20:38:09:025
-0.2418,-8.4853,-0.7925,-0.3033,-9.217,-3.3354,-2.5203,-4.1766,2.3623,-1.4807,-0.3922,-0.6744,0,6.7,23.5,27,235.63,83.91,114.33,0,1010.04,47.656,30.445627,-84.30155,88.41,NaN,,2.26,19.35484,,13 / 14,24222,2018-04-16 20:38:09:125
-2.7103,-6.2802,-0.1173,-0.0372,-8.7777,-4.3727,-0.9519,1.1895,2.9131,-0.9676,-0.733,-0.8821,0,7.4,18.6,33.3,170.95,70.03,174.8,0,1010.04,48.388,30.445627,-84.30155,88.41,NaN,,2.26,19.35484,,13 / 14,24322,2018-04-16 20:38:09:225
-1.3815,-4.3217,-2.6122,0.144,-8.7919,-4.3419,-2.3861,4.2318,3.1902,1.3977,0.5021,0.0525,0,7.4,19.9,31.1,160.37,63.52,179.51,0,1010.05,48.388,30.445627,-84.30155,88.41,NaN,,2.26,19.35484,,13 / 14,24422,2018-04-16 20:38:09:325
2.411,-14.8541,-9.6298,0.144,-8.7919,-4.3419,1.8008,-1.2143,-3.5333,1.3977,0.5021,0.0525,0,7.4,19.9,31.1,160.37,63.52,179.51,0,1010.05,48.388,30.445627,-84.30155,88.41,NaN,,2.26,19.35484,,13 / 14,24522,2018-04-16 20:38:09:425
-2.7893,-5.0376,-3.7638,0.191,-9.4167,-2.7312,-4.5679,5.3483,0.8116,-0.0806,0.2834,-0.9591,0,7.9,21,30.2,152.6,63.71,-178.1,0,1010.04,48.388,30.445623,-84.30154,86.3,NaN,,0,19.35484,,13 / 14,24621,2018-04-16 20:38:09:524
1.1876,-18.977,-6.34,0.1564,-9.2246,-3.3245,-8.8579,12.0642,9.143,0.5266,0.4154,0.1417,0,7.3,23.1,29,152.6,63.71,-178.1,0,1010.04,49.935,30.445623,-84.30154,86.3,NaN,,0,19.35484,,13 / 14,24722,2018-04-16 20:38:09:625
0.7829,-13.8988,-0.6225,0.1801,-9.5354,-2.2832,-8.8579,12.0642,9.143,1.8192,2.1405,1.3244,0,6.8,25,27.5,154.62,70.16,-177.31,0,1010.05,49.935,30.445623,-84.30154,86.3,NaN,,0,19.35484,,13 / 14,24822,2018-04-16 20:38:09:725
-2.4709,-8.4302,0.0024,-0.3793,-9.7752,-0.687,-3.3515,4.3842,0.1781,1.0641,0.7953,0.5302,0,6.2,26.5,26.5,157.33,76.49,-175.49,0,1010.05,49.935,30.445623,-84.30154,86.3,NaN,,0,19.35484,,13 / 14,24922,2018-04-16 20:38:09:825
0.4956,-9.3999,1.4701,-0.5845,-9.7768,0.493,1.0267,0.3914,1.6051,1.1423,0.5241,0.1845,0,6,28.6,22.9,195.86,85.41,151.1,0,1010.04,48.964,30.445623,-84.30154,86.3,NaN,,0,19.35484,,13 / 14,25022,2018-04-16 20:38:09:925
-0.9074,-9.1198,0.6321,-0.5845,-9.7768,0.493,0.6081,-0.0999,-1.3602,1.1423,0.5241,0.1845,0,6.5,30.5,19.3,296.02,85.53,49.86,0,1010.04,48.964,30.445623,-84.30154,86.3,NaN,,0,19.35484,,13 / 14,25121,2018-04-16 20:38:10:024
-0.2346,-10.554,-0.7446,-0.9887,-9.6489,1.4461,0.9573,-0.3142,-1.2583,0.8894,0.5498,0.347,0,6.5,30.5,19.3,296.02,85.53,49.86,0,1010.03,48.964,30.445623,-84.30154,86.3,NaN,,0,19.35484,,13 / 14,25222,2018-04-16 20:38:10:125
1.5275,-10.8844,-0.079,-1.0595,-9.674,1.209,4.8628,-1.6211,-2.1357,0.0037,0.9004,-0.0415,0,6.9,31.8,16.4,315.03,79.71,34.36,0,1010.03,49.668,30.445623,-84.30154,86.3,NaN,,0,19.35484,,13 / 14,25321,2018-04-16 20:38:10:224
3.4214,-12.9291,-1.6377,-1.0304,-9.7465,0.3367,4.8628,-1.6211,-2.1357,-1.8558,-0.1588,-0.3213,0,7.2,32.7,15.1,308.35,80.57,41.23,0,1010.03,49.668,30.445623,-84.30154,86.3,NaN,,0,19.35484,,13 / 14,25422,2018-04-16 20:38:10:325
-5.9139,-11.9379,-1.6808,-0.5824,-9.4361,-2.6057,-5.097,-2.2252,-0.6005,-1.9951,0.6243,-0.3629,0,7.3,29.6,22.3,278.61,83.65,71.9,0,1010.03,49.668,30.445623,-84.30154,86.3,NaN,,0,19.35484,,13 / 14,25522,2018-04-16 20:38:10:425
0.3615,-9.6274,-2.1285,-0.1718,-8.9105,-4.0918,0.8222,0.2229,1.1621,-1.5003,-1.1277,-0.9187,0,5.4,22.9,32.9,185.14,74.2,167.4,0,1010.03,49.836,30.445623,-84.30152,82.15,NaN,,0,19.35484,,13 / 14,25622,2018-04-16 20:38:10:525
-2.4015,-6.8117,0.0096,-0.1718,-8.9105,-4.0918,-3.6837,1.8141,3.7182,-1.5003,-1.1277,-0.9187,0,7.2,19.7,34.7,185.14,74.2,167.4,0,1010.03,49.836,30.445623,-84.30152,82.15,NaN,,0,19.35484,,13 / 14,25721,2018-04-16 20:38:10:624
-1.257,-4.9226,-3.103,0.0458,-8.5768,-4.7547,-0.4688,2.2345,1.4283,0.215,-0.1784,-0.441,0,6,20.4,34.4,162.43,61,-179.45,0,1010.03,49.836,30.445623,-84.30152,82.15,NaN,,0,19.35484,,13 / 14,25822,2018-04-16 20:38:10:725
0.0096,-12.4814,-10.2259,0.0861,-9.081,-3.7012,-0.2691,-3.2508,-6.926,1.3219,-0.5058,-0.182,0,6.8,20.5,33.7,161.59,67.82,-178.67,0,1010.03,49.836,30.445623,-84.30152,82.15,NaN,,0,19.35484,,13 / 14,25922,2018-04-16 20:38:10:825
-3.3352,-11.5045,-2.9354,0.4624,-9.0636,-3.7157,-0.2691,-3.2508,-6.926,-0.6414,-1.8925,-0.3506,0,6.8,20.5,33.7,161.59,67.82,-178.67,0,1010.03,47.036,30.445623,-84.30152,82.15,NaN,,0,19.35484,,13 / 14,26022,2018-04-16 20:38:10:925
-0.7925,-0.1939,10.1134,0.4167,-8.9685,-3.9449,1.0488,-6.5189,-4.3553,-0.0733,0.1258,-1.0996,0,6.9,22.7,31.5,151.13,67.55,-172.91,0,1010.03,47.036,30.445623,-84.30152,82.15,NaN,,0,19.35484,,13 / 14,26122,2018-04-16 20:38:11:025
2.7654,-12.6322,-0.5196,0.0628,-9.4684,-2.5524,1.1228,-6.1256,5.6433,0.9114,-0.5999,-0.2602,0,7.1,24.5,29.5,148.5,66.14,-173.97,0,1010.07,47.036,30.445623,-84.30152,82.15,NaN,,0,19.35484,,13 / 14,26222,2018-04-16 20:38:11:125
-0.0096,-11.0999,-0.0239,0.0628,-9.4684,-2.5524,-2.2989,-0.1342,1.8337,0.9114,-0.5999,-0.2602,0,7.3,25.6,27.6,159.06,74.91,-178.59,0,1010.07,46.857,30.445623,-84.30152,82.15,NaN,,0,19.35484,,13 / 14,26322,2018-04-16 20:38:11:225
0.3256,-9.3281,-0.4597,-0.2964,-9.7648,-0.855,0.7295,0.4684,-0.2687,1.0556,0.7123,0.3873,0,6.3,28.2,23.6,185.7,84.71,160.88,0,1010.04,46.857,30.445623,-84.30152,82.15,NaN,,0,19.35484,,13 / 14,26422,2018-04-16 20:38:11:325
0.1149,-9.2395,1.0439,-0.54,-9.7847,0.3724,0.2245,0.5005,-0.6012,0.8821,0.4313,0.4191,0,6,29.7,21,293.44,86.16,55.41,0,1010.04,46.857,30.445623,-84.30152,82.15,NaN,,0,19.35484,,13 / 14,26522,2018-04-16 20:38:11:425
0.3496,-10.6737,-0.4405,-0.891,-9.6982,1.1493,0.2245,0.5005,-0.6012,0.8479,0.6096,0.3128,0,6,29.7,21,293.44,86.16,55.41,0,1010.04,48.225,30.44562,-84.301506,77.64,NaN,,0,19.35484,,13 / 14,26622,2018-04-16 20:38:11:525
1.7957,-10.3552,-0.4262,-1.1115,-9.6831,1.0828,0.502,0.0887,-1.6763,-0.088,0.6524,0.2773,0,6.2,31.1,17.8,313.62,81.47,37.78,0,1010.04,48.225,30.44562,-84.301506,77.64,NaN,,0,19.35484,,13 / 14,26721,2018-04-16 20:38:11:624
-1.8436,-13.7934,-2.1477,-0.9125,-9.7637,-0.0886,4.1146,-2.6844,-0.8448,-2.1942,0.3079,-0.2834,0,6.6,31.8,15.8,313.62,81.47,37.78,0,1010.04,48.225,30.44562,-84.301506,77.64,NaN,,0,19.35484,,13 / 14,26822,2018-04-16 20:38:11:725
-4.6904,-11.7008,-1.9585,-0.9125,-9.7637,-0.0886,-1.8947,-4.0129,2.3479,-2.1942,0.3079,-0.2834,0,6.6,31.4,16.6,250.74,84.64,95.55,0,1010.04,49.555,30.44562,-84.301506,77.64,NaN,,0,19.35484,,13 / 14,26922,2018-04-16 20:38:11:825
0.0575,-10.2068,-1.5204,-0.7758,-9.3144,-2.9682,1.2486,0.3424,1.6712,-1.5626,0.2101,-0.2028,0,4.8,22,32,187.81,71.77,165.35,0,1010.03,49.555,30.44562,-84.301506,77.64,NaN,,0,19.35484,,13 / 14,27022,2018-04-16 20:38:11:925
-2.672,-6.9362,-0.2107,-0.2896,-8.9531,-3.9911,-3.3753,3.1942,2.8812,-1.102,-0.9114,-1.1301,0,5.2,19.7,32.7,173.33,65.92,175.85,0,1010.03,49.555,30.44562,-84.301506,77.64,NaN,,0,19.35484,,13 / 14,27122,2018-04-16 20:38:12:025
-1.7813,-5.5284,-3.0383,-0.0631,-8.7825,-4.3628,-3.3753,3.1942,2.8812,0.369,0,-0.0916,0,5.5,19.6,33.6,165.71,63.58,179.17,0,1010.02,49.555,30.44562,-84.301506,77.64,NaN,,0,19.35484,,13 / 14,27221,2018-04-16 20:38:12:124
-0.1221,-7.779,-3.7566,-0.1252,-9.2248,-3.3253,-0.7046,1.6523,1.5977,1.2901,-0.2297,-0.2468,0,5.5,19.6,33.6,165.71,63.58,179.17,0,1010.02,48.596,30.44562,-84.301506,77.64,NaN,,0,19.35484,,13 / 14,27322,2018-04-16 20:38:12:225
-1.5515,-11.3225,-6.9626,0.1889,-9.2188,-3.3389,-1.6531,-1.9935,-3.941,-0.3836,-1.4355,-0.4374,0,6,19.8,32.8,169,70.16,177.84,0,1010.02,48.596,30.44562,-84.301506,77.64,NaN,,0,19.35484,,13 / 14,27422,2018-04-16 20:38:12:325
-1.1157,-12.5891,-3.9434,0.1889,-9.2188,-3.3389,1.5687,-5.8334,-3.3564,-0.3836,-1.4355,-0.4374,0,6,21.8,30.4,159.3,70.06,-176.76,0,1010.02,48.596,30.44562,-84.301506,77.64,NaN,,0,19.35484,,13 / 14,27522,2018-04-16 20:38:12:425
-2.7462,0.419,6.534,0.4323,-9.1366,-3.5363,2.5203,-7.1992,5.2548,0.2553,0.3592,-0.9786,0,6,23.8,28.4,150.45,68.7,-173.03,0,1010.07,49.656,30.44562,-84.301506,77.64,NaN,,0,19.35484,,13 / 14,27623,2018-04-16 20:38:12:526
1.2378,-10.2858,-0.3017,0.1608,-9.6204,-1.8953,-0.3166,-1.2466,-0.2354,0.92,-0.4691,-0.1148,0,5.3,25.1,26.8,150.45,68.7,-173.03,0,1010.07,49.656,30.44562,-84.301506,77.64,NaN,,0,19.35484,,13 / 14,27722,2018-04-16 20:38:12:625
0.4765,-9.6753,-0.0838,-0.1608,-9.7856,-0.6222,-0.3166,-1.2466,-0.2354,0.8968,0.5608,0.2334,0,4.2,27,24.2,185.44,86.24,165.51,0,1010.05,49.656,30.44562,-84.301506,77.64,NaN,,0,19.35484,,13 / 14,27822,2018-04-16 20:38:12:725
-0.1628,-9.7279,0.1197,-0.4285,-9.7822,0.5432,-0.2832,0.734,-0.6896,0.9554,0.4081,0.4349,0,4.2,27,24.2,185.44,86.24,165.51,0,1010.05,48.048,30.44562,-84.301506,77.64,NaN,,0,19.35484,,13 / 14,27922,2018-04-16 20:38:12:825
1.3025,-10.0895,-0.3232,-0.7755,-9.6864,1.3198,1.104,-0.2033,-1.1734,0.6891,0.4142,0.3128,0,4.3,29.2,21,314.77,85.95,38.27,0,1010.03,48.048,30.44562,-84.301506,77.64,NaN,,0,19.35484,,13 / 14,28021,2018-04-16 20:38:12:924
2.3129,-11.1453,1.4629,-0.7755,-9.6864,1.3198,1.7376,-0.432,0.0886,0.6891,0.4142,0.3128,0,4.5,30.6,17.3,322.46,81.02,30.44,0,1010.03,48.048,30.44562,-84.301506,77.64,NaN,,0,19.35484,,13 / 14,28122,2018-04-16 20:38:13:025
1.3983,-14.1214,-1.2809,-0.8347,-9.6834,1.3058,2.239,-4.4029,-2.2873,0.1271,0.6133,-0.0305,0,5.3,31.4,14.9,320.14,80.91,32.59,0,1010.01,48.054,30.44562,-84.301506,77.64,NaN,,0,19.35484,,13 / 14,28221,2018-04-16 20:38:13:124
-5.0304,-10.5276,-3.4358,-0.7211,-9.7793,0.1204,-0.9063,-3.4505,3.4515,-2.2749,0.4056,-0.4032,0,5.5,31.3,15.6,266.71,85.72,80.52,0,1010.01,48.054,30.44562,-84.301506,77.64,NaN,,0,19.35484,,13 / 14,28322,2018-04-16 20:38:13:225
0.6297,-10.2212,0.2897,-0.6144,-9.3348,-2.9419,-0.9063,-3.4505,3.4515,-1.8057,0.3225,-0.3567,0,3,21.3,32,188.56,72.15,168.2,0,1010.01,48.054,30.44562,-84.301506,77.64,NaN,,0,19.35484,,13 / 14,28422,2018-04-16 20:38:13:325
-2.1237,-7.1709,-1.7742,-0.1538,-8.8468,-4.2286,-0.8125,0.0044,1.0815,-1.4636,-0.4142,-0.7978,0,3,21.3,32,188.56,72.15,168.2,0,1010.01,48.054,30.44562,-84.301506,77.64,NaN,,0,19.35484,,13 / 14,28522,2018-04-16 20:38:13:425
-2.1118,-4.8388,-3.1628,3.00E-04,-8.5103,-4.873,-2.5213,2.6221,2.1241,0.4374,-0.0635,0,0,3.1,16.5,38.1,176.58,64.44,177.92,0,1010,48.978,30.445627,-84.3015,72.15,NaN,,0,19.35484,,13 / 14,28622,2018-04-16 20:38:13:525
0.0838,-6.601,-3.2682,3.00E-04,-8.5103,-4.873,0.1741,2.1566,1.1438,0.4374,-0.0635,0,0,3.6,16.9,36.7,170.4,60.2,-180,0,1010,48.978,30.445627,-84.3015,72.15,NaN,,0,19.35484,,13 / 14,28722,2018-04-16 20:38:13:625
2.6241,-16.2811,-12.0767,-0.1996,-9.172,-3.4648,-1.2616,-1.9916,-3.2868,1.9242,-0.2749,-0.1503,0,4.1,17,36.2,170.4,60.2,-180,0,1009.98,48.978,30.445627,-84.3015,72.15,NaN,,0,19.35484,,13 / 14,28821,2018-04-16 20:38:13:724
-2.7654,-11.5883,-2.1764,-0.1165,-9.1351,-3.5645,0.4325,-2.0142,-1.7823,-0.2065,-1.7055,-0.1442,0,6.1,20.5,30.9,166.89,68.67,178.13,0,1009.98,47.599,30.445627,-84.3015,72.15,NaN,,0,19.35484,,13 / 14,28922,2018-04-16 20:38:13:825
-2.6002,-3.3256,6.3855,-0.0857,-9.2308,-3.31,0.4325,-2.0142,-1.7823,1.3415,0.5754,0.2321,0,5.8,21.4,30.5,166.89,68.67,178.13,0,1010.02,47.599,30.445627,-84.3015,72.15,NaN,,0,19.35484,,13 / 14,29022,2018-04-16 20:38:13:925
7.8915,-16.4989,-0.5435,-0.3761,-9.671,-1.5812,8.4603,-6.9822,1.754,0.9578,0.496,-0.2187,0,6.3,22.9,28.5,181.97,80.46,166.62,0,1010.02,47.599,30.445627,-84.3015,72.15,NaN,,0,19.35484,,13 / 14,29122,2018-04-16 20:38:14:025
1.4773,-9.1988,0.5531,-0.6684,-9.7753,-0.4076,0.7369,-0.3353,0.8738,1.0934,0.3616,0.2089,0,5.4,25.4,25.4,230.89,85.42,121.37,0,1010,48.935,30.445627,-84.3015,72.15,NaN,,0,19.35484,,13 / 14,29222,2018-04-16 20:38:14:125
-0.6297,-8.9474,-0.4118,-0.6684,-9.7753,-0.4076,-0.2452,0.3569,-0.9941,1.0934,0.3616,0.2089,0,5.4,25.4,25.4,230.89,85.42,121.37,0,1010,48.935,30.445627,-84.3015,72.15,NaN,,0,19.35484,,13 / 14,29322,2018-04-16 20:38:14:225
1.336,-10.2236,-1.8029,-0.8001,-9.7384,0.8324,1.5743,-0.0585,-3.05,1.0739,0.5424,0.3922,0,4.6,27.8,22.1,309.62,83.24,43.87,0,1010,48.935,30.445627,-84.3015,72.15,NaN,,0,19.35484,,13 / 14,29422,2018-04-16 20:38:14:325
0.8787,-12.3305,-1.1588,-1.2038,-9.6438,1.3108,2.0441,-2.6527,-2.2317,0.2627,0.6023,0.2859,0,4.6,29.5,19.4,309.23,83.24,43.87,0,1010,49.516,30.445627,-84.3015,72.15,NaN,,0,19.35484,,13 / 14,29522,2018-04-16 20:38:14:425
-2.9881,-11.6338,-3.8931,-1.0822,-9.7251,0.6499,2.0441,-2.6527,-2.2317,-1.3085,-0.4484,-0.0342,0,5.2,30.6,17,296.15,82.6,59.01,0,1009.99,49.516,30.445627,-84.3015,72.15,NaN,,0,19.35484,,13 / 14,29621,2018-04-16 20:38:14:524
-2.5643,-13.0392,0.3759,-0.8687,-9.5476,-2.0638,-2.6192,-0.8282,-0.8711,-1.3085,-0.4484,-0.0342,0,5.1,27.3,23.9,296.15,82.6,59.01,0,1009.99,49.516,30.445627,-84.3015,72.15,NaN,,0,19.35484,,13 / 14,29722,2018-04-16 20:38:14:625
-0.2873,-8.775,-2.7103,-0.301,-9.0251,-3.8245,-0.631,-0.5285,1.2803,-1.4563,-0.5082,-0.6683,0,2.4,19.9,33.7,181.64,66.97,175.5,0,1010,49.516,30.445627,-84.3015,72.15,NaN,,0,19.35484,,13 / 14,29822,2018-04-16 20:38:14:725
-2.2913,-6.9554,-0.498,-0.301,-9.0251,-3.8245,-2.0144,1.8641,3.781,-1.1961,-1.1448,-0.6011,0,2.4,19.9,33.7,181.64,66.97,175.5,0,1010,48.669,30.445627,-84.3015,72.15,NaN,,0,19.35484,,13 / 14,29922,2018-04-16 20:38:14:825
-0.7279,-4.5108,-1.8699,-0.336,-8.6312,-4.6433,0.1285,3.1685,3.4194,0.8699,-0.0195,0.0305,0,4.6,16.6,36.7,174.65,61.66,175.86,0,1009.99,48.669,30.445627,-84.3015,72.15,NaN,,0,19.35484,,13 / 14,30022,2018-04-16 20:38:14:925
1.0798,-10.2379,-8.4566,-0.3843,-8.996,-3.8852,3.045,-6.4807,-10.6073,0.7257,0.3286,-0.9016,0,3.6,17,35.6,174.65,61.66,175.86,0,1009.99,48.669,30.445627,-84.3015,72.15,NaN,,0,19.35484,,13 / 14,30123,2018-04-16 20:38:15:026
-1.5156,-5.3488,-4.2858,0.3399,-9.2561,-3.2217,3.045,-6.4807,-10.6073,0.7257,0.3286,-0.9016,0,4.3,18.1,33.6,178.5,66.54,174.35,0,1010.01,45.972,30.445627,-84.3015,72.15,NaN,,0,19.35484,,13 / 14,30223,2018-04-16 20:38:15:126
-3.6441,-16.6522,-4.8484,0.4498,-9.1865,-3.4023,0.6919,-7.6127,-1.4104,1.124,-0.2676,0.171,0,4.9,20.6,30.6,159.21,70.71,-173.98,0,1010.01,45.972,30.445627,-84.3015,72.15,NaN,,0,19.35484,,13 / 14,30322,2018-04-16 20:38:15:225
6.7997,-20.428,5.0232,-0.1143,-9.6368,-1.8135,-1.265,-3.0885,5.2997,1.6139,1.4233,1.4685,0,4.5,22.1,29.7,155.55,69.52,-172.47,0,1010.04,45.972,30.445627,-84.3015,72.15,NaN,,0,19.35484,,13 / 14,30423,2018-04-16 20:38:15:326
-4.1852,-8.4638,-1.2546,-0.1143,-9.6368,-1.8135,-4.1781,1.2912,-0.2488,1.3134,1.5149,0.4288,0,3.5,24.7,25.9,173.63,79.32,176.39,0,1010.04,46.856,30.445627,-84.3015,72.15,NaN,,0,19.35484,,13 / 14,30522,2018-04-16 20:38:15:425
1.5587,-9.7543,0.3017,-0.4602,-9.7892,-0.3613,1.2468,-0.023,-1.2543,1.003,0.5644,0.0574,0,3.5,24.7,25.9,173.63,79.32,176.39,0,1010.02,46.856,30.445627,-84.3015,72.15,NaN,,0,19.35484,,13 / 14,30622,2018-04-16 20:38:15:525
-0.2897,-9.0911,-0.34,-0.5049,-9.7747,0.6083,1.9833,-0.0633,-0.5653,1.003,0.5644,0.0574,0,2.2,27,22.6,230.01,86.58,128.14,0,1010.02,46.856,30.445627,-84.3015,72.15,NaN,,0,19.35484,,13 / 14,30722,2018-04-16 20:38:15:625
-1.2115,-10.4103,-0.3113,-0.7581,-9.698,1.2425,1.9833,-0.0633,-0.5653,0.6158,0.4948,0.2798,0,1.8,28.6,20.6,318.95,85.38,39.69,0,1010.03,49.67,30.445627,-84.3015,72.15,NaN,,0,19.35484,,13 / 14,30822,2018-04-16 20:38:15:725
-0.6345,-10.3026,-1.0463,-0.992,-9.6615,1.357,2.5694,-0.8579,-1.0559,0.1271,1.0275,0.2065,0,1.8,29.7,18.5,318.95,85.38,39.69,0,1010.03,49.67,30.445627,-84.3015,72.15,NaN,,0,19.35484,,13 / 14,30922,2018-04-16 20:38:15:825
2.7055,-14.5955,-1.2714,-0.9979,-9.7535,0.2093,3.8173,-4.9121,-2.3512,-2.3946,-0.1417,-0.4068,0,2,30.4,17.2,326.36,80.13,36.17,0,1010.02,49.67,30.445627,-84.3015,72.15,NaN,,0,19.35484,,13 / 14,31022,2018-04-16 20:38:15:925
-4.245,-11.7224,-1.4366,-0.9979,-9.7535,0.2093,-0.7477,-5.0206,2.4661,-2.3946,-0.1417,-0.4068,0,2.7,29.8,17.6,326.36,80.13,36.17,0,1010.02,49.67,30.445627,-84.3015,72.15,NaN,,0,19.35484,,13 / 14,31122,2018-04-16 20:38:16:025
-0.0623,-11.9426,0.6704,-0.4703,-9.3732,-2.8446,-0.6054,1.1131,2.0192,-1.554,0.4423,-0.9041,0,0.6,19.8,30.4,189.82,72.9,170.61,0,1010.01,48.377,30.445627,-84.3015,72.15,NaN,,0,19.35484,,13 / 14,31222,2018-04-16 20:38:16:125
-2.6145,-5.3728,-0.9984,0.0083,-8.7619,-4.4045,-2.6066,3.1308,3.8862,-1.3011,-0.8894,-0.5962,0,3.3,15.4,33.2,172.33,63.31,-179.89,0,1010.01,48.377,30.445627,-84.3015,72.15,NaN,,0,19.35484,,13 / 14,31322,2018-04-16 20:38:16:225
-0.7494,-6.929,-2.6409,-0.143,-8.5569,-4.7884,-2.6066,3.1308,3.8862,0.9371,-0.2211,0.1271,0,3.3,15.4,33.2,172.33,63.31,-179.89,0,1010.02,48.377,30.445627,-84.3015,72.15,NaN,,0,19.35484,,13 / 14,31422,2018-04-16 20:38:16:325
-2.186,-11.5643,-8.8468,-0.4489,-9.3005,-3.0773,0.9249,0.0864,-1.0561,0.5534,-0.1906,-0.7844,0,3.2,16,32.4,174.21,60.76,178.29,0,1010.02,48.514,30.445627,-84.3015,72.15,NaN,,0,19.35484,,13 / 14,31522,2018-04-16 20:38:16:425
-3.6752,-10.3385,-3.4956,-0.0864,-9.2006,-3.3927,-6.3238,2.5405,0.2248,-0.0195,0.4056,0.193,0,5.6,19.1,29.1,175.45,71.51,171.7,0,1010.01,48.514,30.445627,-84.3015,72.15,NaN,,0,19.35484,,13 / 14,31622,2018-04-16 20:38:16:525
-7.1086,-4.8747,-0.4932,-0.0864,-9.2006,-3.3927,-5.2893,8.1165,9.6605,-0.0195,0.4056,0.193,0,6,19.4,28.3,165.07,69.75,178.54,0,1010.01,48.514,30.445627,-84.3015,72.15,NaN,,0,19.35484,,13 / 14,31722,2018-04-16 20:38:16:625
-2.241,-6.5843,-1.2235,-0.1003,-9.49,-2.47,-2.018,3.0826,0.4114,1.5699,0.7453,0.7282,0,5.9,21.4,26.4,166.18,75.4,177.67,0,1010.05,49.715,30.445627,-84.3015,72.15,NaN,,0,19.35484,,13 / 14,31822,2018-04-16 20:38:16:725
-1.1133,-8.3656,-0.6824,-0.3788,-9.7514,-0.9682,0.3873,0.449,0.0812,0.8711,0.1845,0.1613,0,5.5,23.5,23.9,188.22,83.91,158.63,0,1010.05,49.715,30.445627,-84.3015,72.15,NaN,,0,19.35484,,13 / 14,31922,2018-04-16 20:38:16:825
-1.5706,-9.0887,-0.577,-0.4724,-9.7952,-0.0205,0.3873,0.449,0.0812,0.9468,0.2358,0.0843,0,5.5,23.5,23.9,188.22,83.91,158.63,0,1010.04,49.715,30.445627,-84.3015,72.15,NaN,,0,19.35484,,13 / 14,32022,2018-04-16 20:38:16:925
0.6321,-9.5819,-2.1309,-0.8441,-9.7316,0.868,0.7804,0.0338,-0.5739,0.8515,0.3714,0.2737,0,5.4,25.5,21.3,257.38,87.24,92.49,0,1010.04,47.697,30.445627,-84.3015,72.15,NaN,,0,19.35484,,13 / 14,32122,2018-04-16 20:38:17:025
0.577,-11.3225,-0.6656,-0.7107,-9.732,0.9762,2.0189,-0.1302,0.6283,0.1588,0.628,0.1161,0,5.3,27.5,18.3,308.44,82.91,44.2,0,1010.04,47.697,30.445627,-84.3015,72.15,NaN,,0,19.35484,,13 / 14,32222,2018-04-16 20:38:17:125
1.8101,-10.9442,-1.2642,-0.7107,-9.732,0.9762,0.8832,-1.9544,-1.8028,0.1588,0.628,0.1161,0,5.6,28.9,15.9,312.12,82.93,36.06,0,1010.04,47.697,30.445627,-84.3015,72.15,NaN,,0,19.35484,,13 / 14,32322,2018-04-16 20:38:17:225
-6.4382,-11.1597,-2.4877,-0.9974,-9.7553,-0.0947,-4.1282,-3.3634,1.543,-2.2455,-0.1283,-0.474,0,6.2,28.8,16.4,253.73,84.14,95.42,0,1010.05,47.697,30.445627,-84.3015,72.15,NaN,,0,19.35484,,13 / 14,32422,2018-04-16 20:38:17:325
-1.3623,-11.6194,0.1772,-0.1915,-9.3548,-2.936,-0.8719,-0.1771,1.9135,-1.5418,0.5571,-0.7355,0,3.4,20.6,29.6,177.34,72.54,176.27,0,1010.05,48.618,30.445627,-84.3015,72.15,NaN,,0,19.35484,,13 / 14,32522,2018-04-16 20:38:17:425
-1.4581,-7.5276,-1.4653,0.2417,-8.8266,-4.2665,-0.8719,-0.1771,1.9135,-1.427,-1.0385,-0.8491,0,3.4,20.6,29.6,177.34,72.54,176.27,0,1010.04,48.618,30.445627,-84.3015,72.15,NaN,,0,19.35484,,13 / 14,32622,2018-04-16 20:38:17:525
-2.6648,-4.7431,-2.9809,0.1633,-8.4905,-4.9046,-3.3297,3.1132,3.0117,-1.427,-1.0385,-0.8491,0,4.2,17.1,32.9,165.11,64.17,-176.76,0,1010.04,48.618,30.445627,-84.3015,72.15,NaN,,0,19.35484,,13 / 15,32722,2018-04-16 20:38:17:625
0.8524,-7.961,-3.589,0.2632,-8.9047,-4.0996,0.7023,0.6632,1.077,0.9041,-0.485,-0.2346,0,4.3,17.2,32.9,165.66,59.97,-178.09,0,1010.04,48.259,30.445627,-84.3015,72.15,NaN,,0,19.35484,,13 / 15,32821,2018-04-16 20:38:17:724
-1.2426,-8.8229,-5.9522,0.2632,-8.9047,-4.0996,-1.6721,-1.4444,-3.6341,1.113,-0.3238,-0.2053,0,5.3,17.2,32.5,162.47,65.23,-176.33,0,1010.04,48.259,30.445627,-84.3015,72.15,NaN,,0,19.35484,,13 / 15,32922,2018-04-16 20:38:17:825
-1.9322,-9.1749,-5.3991,0.4036,-9.2415,-3.2559,-0.5266,-8.4231,-3.6168,0.0318,0.2737,0.0061,0,6.6,22.5,27.3,148.48,70.45,-172.93,0,1010.04,48.259,30.445627,-84.3015,72.15,NaN,,0,19.35484,,13 / 15,33022,2018-04-16 20:38:17:925
3.2035,-2.7271,5.6146,0.6799,-9.1762,-3.3918,5.1662,-10.1066,3.7487,1.6897,1.1729,1.1301,0,5.6,23,26.2,143.09,69.34,-168.67,0,1010.04,48.587,30.445627,-84.3015,72.15,NaN,,0,19.35484,,13 / 15,33122,2018-04-16 20:38:18:025
3.6345,-13.2667,-0.182,0.208,-9.6551,-1.7047,5.1662,-10.1066,3.7487,1.6897,1.1729,1.1301,0,5.6,23,26.2,143.09,69.34,-168.67,0,1010.06,48.587,30.445627,-84.3015,72.15,NaN,,0,19.35484,,13 / 15,33222,2018-04-16 20:38:18:125
0.522,-11.3225,-0.5842,-0.2123,-9.7997,-0.3001,0.5908,-1.5529,0.2644,1.0177,0.7807,0.3115,0,5.7,24.9,24,154.23,79.91,-173.04,0,1010.06,48.587,30.445627,-84.3015,72.15,NaN,,0,19.35484,,13 / 15,33322,2018-04-16 20:38:18:225
0.4597,-9.431,0.1532,-0.4786,-9.7716,0.6763,-0.2321,0.6913,-0.2954,0.8711,0.4765,0.1759,0,5.7,28.1,19.8,199.55,87.85,144.73,0,1010.04,48.301,30.445627,-84.3015,72.15,NaN,,0,19.35484,,13 / 15,33422,2018-04-16 20:38:18:325
0.6896,-9.886,-0.5866,-0.4786,-9.7716,0.6763,0.632,0.2926,-2.1611,0.9737,0.4349,0.4765,0,5.7,29.4,17.5,311.72,85.15,35.29,0,1010.04,48.301,30.445627,-84.3015,72.15,NaN,,0,19.35484,,13 / 15,33522,2018-04-16 20:38:18:425
-0.7853,-10.0583,-2.9378,-0.8741,-9.6751,1.341,0.0789,-0.356,-4.0723,0.0073,1.1093,-0.0806,0,6,30.6,15.3,311.72,85.15,35.29,0,1010.05,48.301,30.445627,-84.3015,72.15,NaN,,0,19.35484,,13 / 15,33621,2018-04-16 20:38:18:524
-0.3735,-14.7463,-0.8619,-0.864,-9.7458,0.6662,-4.9496,-2.1143,-0.9298,-2.5827,-0.2126,-0.5522,0,6.5,31.1,14.4,292.73,83.61,52.36,0,1010.05,48.301,30.445627,-84.3015,72.15,NaN,,0,19.35484,,14 / 15,33722,2018-04-16 20:38:18:625
-4.7335,-12.0887,0.6058,-0.6262,-9.5807,-1.9972,-4.9496,-2.1143,-0.9298,-2.5827,-0.2126,-0.5522,0,6.4,24.8,26,185.68,77.68,162.59,0,1010.04,47.832,30.445627,-84.3015,72.15,NaN,,0,19.35484,,14 / 15,33822,2018-04-16 20:38:18:725
-0.261,-8.9785,-1.6137,-0.2652,-8.9385,-4.0253,0.6022,-1.8166,3.9143,-1.576,0.4655,-0.5143,0,6.4,24.8,26,185.68,77.68,162.59,0,1010.04,47.832,30.445627,-84.3015,72.15,NaN,,0,19.35484,,14 / 15,33922,2018-04-16 20:38:18:825
-2.3847,-7.008,-0.6728,-0.1071,-8.5513,-4.7992,-2.1986,1.7137,3.8068,-1.1264,-1.0409,-0.8002,0,6,18.9,31.7,169.83,65.71,176.23,0,1010.03,47.832,30.445627,-84.3015,72.15,NaN,,0,19.35484,,14 / 15,34022,2018-04-16 20:38:18:925
-1.925,-4.4486,-2.8516,-0.1071,-8.5513,-4.7992,-0.9868,3.2311,1.7354,0.8687,0.2944,0.0293,0,6.4,18.4,32,164.61,60.69,178.72,0,1010.03,49.524,30.445627,-84.3015,72.15,NaN,,0,19.35484,,14 / 15,34122,2018-04-16 20:38:19:025
1.2833,-10.1038,-6.5962,0.0131,-8.9564,-3.9941,2.1286,-5.7092,-8.77,0.8137,-0.2639,-0.6353,0,6.7,18.3,32.1,162.01,65.97,-179.81,0,1010.01,49.524,30.445627,-84.3015,72.15,NaN,,0,19.35484,,14 / 15,34222,2018-04-16 20:38:19:125
-1.3815,-6.6848,-4.1972,0.4028,-9.2462,-3.2428,-5.8628,-4.7458,0.3507,0.551,-0.2505,0.4349,0,7,21.2,29.6,162.01,65.97,-179.81,0,1010.01,49.524,30.445627,-84.3015,72.15,NaN,,0,19.35484,,14 / 15,34322,2018-04-16 20:38:19:225
-2.8444,-17.1717,-7.937,0.0394,-9.151,-3.5253,-5.8628,-4.7458,0.3507,0.551,-0.2505,0.4349,0,7.6,22.8,27.9,154.94,68.93,-179.36,0,1010.01,44.989,30.445627,-84.3015,72.15,NaN,,0,19.35484,,14 / 15,34421,2018-04-16 20:38:19:324
-3.9194,-5.1597,0.6896,-0.1537,-9.5343,-2.2897,-4.0732,4.0896,3.9448,1.5101,0.2492,0.463,0,7.8,24.1,26.7,154.94,68.93,-179.36,0,1010.01,44.989,30.445627,-84.3015,72.15,NaN,,0,19.35484,,14 / 15,34522,2018-04-16 20:38:19:425
-5.2075,-6.3065,-2.0208,-0.546,-9.75,-0.8994,-4.2112,2.4829,0.2722,1.1777,1.383,0.3445,0,7.9,25.2,25.1,161.56,76.47,176.16,0,1010.02,44.989,30.44563,-84.30144,42.46,NaN,,0,12.903226,,14 / 15,34621,2018-04-16 20:38:19:524
2.6768,-9.5867,0.4956,-0.546,-9.75,-0.8994,0.4817,1.2631,0.1668,1.1313,0.3323,0.1112,0,6.8,27.4,22.5,196.37,83.84,148.74,0,1010.02,46.143,30.44563,-84.30144,42.46,NaN,,0,12.903226,,14 / 15,34722,2018-04-16 20:38:19:625
-0.0766,-9.2443,-1.4054,-0.5837,-9.784,0.3197,0.413,0.0524,-0.4482,1.025,0.441,0.3934,0,6.2,29.6,20,196.37,83.84,148.74,0,1010.01,46.143,30.44563,-84.30144,42.46,NaN,,0,12.903226,,14 / 15,34822,2018-04-16 20:38:19:725
0.6369,-11.1956,0.4501,-0.8842,-9.6976,1.1596,1.4534,-1.4838,-0.6377,-0.1686,0.2981,0.2272,0,6.2,29.6,20,196.37,83.84,148.74,0,1010.01,46.143,30.44563,-84.30144,42.46,NaN,,0,12.903226,,14 / 15,34922,2018-04-16 20:38:19:825
3.6656,-13.8102,-1.2259,-0.8533,-9.7375,0.7893,1.4534,-1.4838,-0.6377,-0.1686,0.2981,0.2272,0,6.2,31.4,16.5,313.64,81.45,37.33,0,1010,46.143,30.44563,-84.30144,42.46,NaN,,0,12.903226,,14 / 15,35022,2018-04-16 20:38:19:925
-6.6824,-11.4805,-1.846,-0.5799,-9.7362,-1.0201,2.2364,-6.3481,-2.2701,-1.5003,-0.5925,-0.0977,0,6.4,32.2,14.9,302.29,83.19,47.23,0,1010,48.758,30.44563,-84.30144,42.46,NaN,,0,12.903226,,14 / 15,35122,2018-04-16 20:38:20:025
-0.158,-10.2379,-1.1684,-0.0681,-9.1294,-3.5803,-0.6666,-3.1658,5.5608,-2.3188,1.1215,-0.0941,0,5,27.8,22.6,302.29,83.19,47.23,0,1010.01,48.758,30.44563,-84.30144,42.46,NaN,,0,12.903226,,14 / 15,35222,2018-04-16 20:38:20:125
-1.9298,-6.2323,-0.4908,-0.0681,-9.1294,-3.5803,-0.8647,1.8782,2.5721,-1.4453,-1.0971,-1.0531,0,4.1,22.3,32.1,171.17,68.58,178.91,0,1010.01,48.758,30.44563,-84.30144,42.46,NaN,,0,12.903226,,14 / 15,35322,2018-04-16 20:38:20:225
-2.2434,-4.4581,-2.7534,0.189,-8.6289,-4.6557,-2.4188,4.0322,2.151,0.2541,-0.4178,-0.1735,0,4.5,19.2,32.6,162.27,61.63,-177.68,0,1010.01,47.47,30.44563,-84.30144,42.46,NaN,,0,12.903226,,14 / 15,35422,2018-04-16 20:38:20:325
0.6896,-8.1357,-4.8915,0.0946,-8.683,-4.5571,2.417,-2.175,-4.3189,1.8607,-0.3409,0.0611,0,4.9,19.7,33.1,164,62.3,-178.81,0,1010.01,47.47,30.44563,-84.30144,42.46,NaN,,0,12.903226,,14 / 15,35522,2018-04-16 20:38:20:425
-0.3304,-11.7726,-11.2722,0.1551,-9.2799,-3.1668,2.417,-2.175,-4.3189,1.8607,-0.3409,0.0611,0,4.9,19.7,33.1,164,62.3,-178.81,0,1010.03,47.47,30.44563,-84.30144,42.46,NaN,,0,12.903226,,15 / 15,35622,2018-04-16 20:38:20:525
-1.6808,-11.3991,-2.49,-0.0741,-9.0871,-3.6863,-3.7479,4.1736,0.7291,-0.4667,-1.978,-0.4753,0,5.5,22.1,30.3,160.41,71.14,-177.2,0,1010.03,47.673,30.44563,-84.30144,42.46,NaN,,0,12.903226,,15 / 15,35721,2018-04-16 20:38:20:624
-5.4422,-0.9577,5.8372,-0.1166,-9.4561,-2.5958,-5.7023,8.1393,9.4905,1.2584,0.6121,-0.4203,0,6.3,23.6,28.6,163.21,67.92,178.85,0,1010.04,47.673,30.44563,-84.30144,42.46,NaN,,0,12.903226,,15 / 15,35822,2018-04-16 20:38:20:725
-2.1285,-7.9131,-2.1237,-0.1166,-9.4561,-2.5958,-4.5547,3.9076,0.3298,1.3354,0.4972,0.0208,0,6,25.3,27.3,166.32,74.63,177.43,0,1010.04,47.673,30.44563,-84.30144,42.46,NaN,,0,12.903226,,15 / 15,35922,2018-04-16 20:38:20:825
2.8827,-11.7248,0.3544,-0.5885,-9.7521,-0.8489,0.2357,0.4205,-0.0787,0.6952,0.3384,-0.0195,0,5.5,28,25.1,204.04,83.95,145.27,0,1010.05,48.802,30.44563,-84.30144,42.46,NaN,,0,12.903226,,15 / 15,36022,2018-04-16 20:38:20:925
-0.565,-9.6298,0.0431,-0.5497,-9.7908,0.085,0.1281,0.1353,-0.5346,1.0421,0.336,0.3946,0,4.4,30.6,22,272.99,86.75,81.21,0,1010.05,48.802,30.44563,-84.30144,42.46,NaN,,0,12.903226,,15 / 15,36122,2018-04-16 20:38:21:025
0.1413,-10.1421,-1.3719,-0.9137,-9.6994,1.1211,0.1281,0.1353,-0.5346,1.0421,0.336,0.3946,0,4.4,30.6,22,272.99,86.75,81.21,0,1010.04,48.802,30.44563,-84.30144,42.46,NaN,,0,12.903226,,15 / 15,36222,2018-04-16 20:38:21:125
-1.3192,-11.2914,-0.7997,-1.0189,-9.6873,1.1348,1.6274,0.2045,-1.4644,0.3238,0.8613,0.2883,0,4.7,32.6,18.7,315.77,81.52,39.18,0,1010.04,48.802,30.44563,-84.30144,42.46,NaN,,0,12.903226,,15 / 15,36322,2018-04-16 20:38:21:225
-1.2139,-12.2156,-2.6265,-0.9992,-9.751,0.2979,1.2554,-1.2781,-2.0064,-0.3958,0.4484,0.1955,0,5.2,33.7,15.9,313.65,81.05,41.92,0,1010.04,48.017,30.44563,-84.30144,42.46,NaN,,0,12.903226,,15 / 15,36421,2018-04-16 20:38:21:324
-3.1269,-14.7487,0.8763,-0.9992,-9.751,0.2979,-5.7895,-1.2802,-2.1046,-3.4318,-0.4972,-0.215,0,5.7,33.7,15.2,277.64,83.9,73.4,0,1010.04,48.017,30.44563,-84.30144,42.46,NaN,,0,12.903226,,15 / 15,36522,2018-04-16 20:38:21:425
0.5603,-9.5244,-1.6018,-0.6545,-9.3305,-2.9467,0.8242,-0.5248,2.285,-1.6163,-1.1887,-0.9762,0,4.2,25.6,29,186.88,72.07,167.48,0,1010.06,48.017,30.44563,-84.30144,42.46,NaN,,0,12.903226,,15 / 15,36622,2018-04-16 20:38:21:525
-2.8396,-5.6553,-0.1053,-0.1088,-8.7584,-4.41,-2.9621,2.8914,5.3503,-1.6163,-1.1887,-0.9762,0,4.5,20.4,33.7,186.88,72.07,167.48,0,1010.06,47.969,30.44563,-84.30144,42.46,NaN,,0,12.903226,,15 / 15,36722,2018-04-16 20:38:21:625
-2.7606,-3.7638,-2.265,0.0717,-8.4863,-4.914,-2.9621,2.8914,5.3503,0.4191,-0.4508,-0.2944,0,4.9,20.4,31.7,162.75,59.92,-179.16,0,1010.06,47.969,30.44563,-84.30144,42.46,NaN,,0,12.903226,,15 / 15,36822,2018-04-16 20:38:21:725
1.3264,-9.8261,-5.3297,0.0462,-9.1848,-3.4361,-1.2885,1.994,1.3497,1.6163,-0.6341,0.0305,0,5.1,20.4,32.5,162.75,59.92,-179.16,0,1010.06,47.969,30.44563,-84.30144,42.46,NaN,,0,12.903226,,15 / 15,36922,2018-04-16 20:38:21:825
-0.917,-10.4797,-9.376,0.4944,-9.046,-3.7543,-1.2214,-1.1802,-6.2781,-0.3726,-2.0879,-0.2627,0,5.4,22.9,29.9,153.7,67.29,-172.5,0,1010.05,49.305,30.44563,-84.30144,42.46,NaN,,0,12.903226,,15 / 15,37022,2018-04-16 20:38:21:925
-0.0742,-14.4423,-2.7558,0.4944,-9.046,-3.7543,0.1105,-8.7729,-4.428,-0.3726,-2.0879,-0.2627,0,5.4,22.9,29.9,153.7,67.29,-172.5,0,1010.05,49.305,30.44563,-84.30144,42.46,NaN,,0,12.903226,,15 / 15,37122,2018-04-16 20:38:22:025
-10.3002,0.0455,0.2083,0.426,-9.1245,-3.5681,4.1522,-8.3345,6.588,0.9102,0.4716,-0.6597,0,5.9,24.8,28.2,149.96,68.5,-173.19,0,1010.1,49.305,30.44563,-84.30144,42.46,NaN,,0,12.903226,,15 / 15,37222,2018-04-16 20:38:22:125
-2.8564,-6.8524,-1.9801,-0.2136,-9.6535,-1.713,-0.2178,-0.3796,0.9517,1.1545,-0.0208,-0.5241,0,6.1,26.1,26.7,173.38,79.86,172.89,0,1010.1,47.685,30.44563,-84.30144,42.46,NaN,,0,12.903226,,15 / 15,37322,2018-04-16 20:38:22:225
1.4557,-9.4861,0.3855,-0.4822,-9.7898,-0.3128,-0.2178,-0.3796,0.9517,0.8821,0.3543,0.1808,0,5.6,29.5,22.3,169.2,79.86,172.89,0,1010.08,47.685,30.44563,-84.30144,42.46,NaN,,0,12.903226,,15 / 15,37421,2018-04-16 20:38:22:324
-0.1245,-9.0815,-0.4453,-0.5259,-9.7584,0.8171,0.3164,0.7115,-0.7138,0.9872,0.2871,0.4838,0,4.9,31.1,20.1,318.71,84.31,32.77,0,1010.08,47.685,30.44563,-84.30144,42.46,NaN,,0,12.903226,,15 / 15,37521,2018-04-16 20:38:22:424
0.5148,-10.0799,-0.3831,-0.9041,-9.6774,1.304,1.9258,-0.3712,-1.945,0.099,0.6622,0.2761,0,4.4,32.9,17.9,320.99,84.31,32.77,0,1010.09,47.685,30.44563,-84.30144,42.46,NaN,,0,12.903226,,15 / 15,37622,2018-04-16 20:38:22:525
1.7981,-11.4375,1.5228,-0.9041,-9.6774,1.304,-1.3895,0.2458,-3.553,0.099,0.6622,0.2761,0,4.3,34.1,16.2,320.99,84.31,32.77,0,1010.09,46.787,30.44563,-84.30144,42.46,NaN,,0,12.903226,,14 / 15,37722,2018-04-16 20:38:22:625
3.3783,-12.5963,-1.269,-1.1597,-9.7016,0.8391,-3.2502,-2.5451,-0.5945,-0.4691,0.3042,0.5363,0,4.3,34.1,16.2,320.99,84.31,32.77,0,1010.09,46.787,30.44563,-84.30144,42.46,NaN,,0,12.903226,,14 / 15,37821,2018-04-16 20:38:22:724
-7.8436,-12.3425,-2.9114,-0.8373,-9.6593,-1.4723,-0.4204,-1.8491,3.3369,-2.8723,1.4013,-0.3164,0,4.7,34.1,16.9,302.92,81.61,54.11,0,1010.09,46.787,30.44563,-84.30144,42.46,NaN,,0,12.903226,,14 / 15,37922,2018-04-16 20:38:22:825
-0.9553,-9.8333,-0.4094,-0.0966,-9.0966,-3.6622,-0.4204,-1.8491,3.3369,-1.7617,-1.5992,-0.9542,0,1.3,26,30.3,212.78,80.05,150.37,0,1010.07,47.379,30.44563,-84.30144,42.46,NaN,,0,12.903226,,14 / 15,38022,2018-04-16 20:38:22:925
-3.0479,-6.1078,-0.2466,0.0134,-8.5888,-4.7331,-2.9812,2.732,3.9988,-0.2688,-0.9297,-0.5376,0,3.2,21,33.2,174.67,68.06,178.49,0,1010.07,47.379,30.44563,-84.30144,42.46,NaN,,0,12.903226,,14 / 15,38121,2018-04-16 20:38:23:024
-1.6592,-3.5651,-2.2793,-0.0808,-9.0451,-3.788,-1.0645,4.2772,1.6498,2.1295,-0.2053,0.4105,0,3.5,21.8,32.8,167.37,61.14,-179.84,0,1010.07,47.379,30.44563,-84.30144,42.46,NaN,,0,12.903226,,14 / 15,38222,2018-04-16 20:38:23:125
3.9338,-12.4909,-9.115,-0.0808,-9.0451,-3.788,3.9139,-8.8169,-10.3423,2.1295,-0.2053,0.4105,0,4.7,23.8,30.7,167.4,67.27,178.78,0,1010.07,48.64,30.44563,-84.30144,42.46,NaN,,0,12.903226,,14 / 15,38322,2018-04-16 20:38:23:225
-3.4047,-3.4454,-3.3831,0.2563,-9.2281,-3.3085,-3.3194,-11.4338,-2.1097,-0.9016,-2.9688,-0.9346,0,4.7,23.8,30.7,167.4,67.27,178.78,0,1010.08,48.64,30.44563,-84.30144,42.46,NaN,,0,12.903226,,14 / 15,38421,2018-04-16 20:38:23:324
6.5579,-18.8884,2.842,0.1383,-9.159,-3.502,6.7719,-9.4145,5.3658,1.0837,0.0318,-0.325,0,5.9,24.8,28.9,155.82,70.22,-175.57,0,1010.08,48.64,30.44563,-84.30144,42.46,NaN,,0,12.903226,,14 / 15,38522,2018-04-16 20:38:23:425
-4.5683,-7.3672,-0.8667,-0.311,-9.6559,-1.6846,6.7719,-9.4145,5.3658,1.0788,0.4985,-0.0953,0,6.3,26.4,26.8,155.76,69.06,-177.74,0,1010.09,48.032,30.44563,-84.30144,42.46,NaN,,0,12.903226,,14 / 15,38622,2018-04-16 20:38:23:525
-0.0814,-8.0208,0.6321,-0.5039,-9.7856,-0.3984,3.7749,-2.3999,1.5344,1.0788,0.4985,-0.0953,0,6.2,28.7,23.6,175.42,79.94,169.54,0,1010.09,48.032,30.44563,-84.30144,42.46,NaN,,0,12.903226,,14 / 15,38721,2018-04-16 20:38:23:624
-1.4892,-8.9833,0.4669,-0.7316,-9.7391,0.8861,-0.5328,0.8623,0.0708,1.1741,0.1845,0.1698,0,5.5,31.2,20.5,219.15,86.24,128.33,0,1010.09,48.032,30.44563,-84.30144,42.46,NaN,,0,12.903226,,14 / 15,38822,2018-04-16 20:38:23:725
0.8332,-10.2427,-0.9553,-0.7316,-9.7391,0.8861,1.8727,-0.5764,-2.2403,0.6817,0.722,0.3836,0,5.5,33.4,16.4,309.76,83.27,39.55,0,1010.09,48.032,30.44563,-84.30144,42.46,NaN,,0,12.903226,,14 / 15,38922,2018-04-16 20:38:23:825
-1.6616,-9.7447,-3.8284,-1.1056,-9.6618,1.2637,-0.7631,-1.6746,-2.609,-0.3164,1.3757,0.0782,0,5.1,34.2,15,309.76,83.27,39.55,0,1010.07,49.086,30.44563,-84.30144,42.46,NaN,,0,12.903226,,14 / 15,39022,2018-04-16 20:38:23:925
1.822,-13.5037,-3.364,-1.1562,-9.731,0.3762,-7.4122,-2.051,-1.1825,-3.3097,0.3274,-0.8222,0,5.4,34.4,14.9,284.55,82.88,71.98,0,1010.07,49.086,30.44563,-84.30144,42.46,NaN,,0,12.903226,,14 / 15,39121,2018-04-16 20:38:24:024
-3.4238,-14.0999,0.7781,-0.5627,-9.3534,-2.8926,-7.4122,-2.051,-1.1825,-3.3097,0.3274,-0.8222,0,5.4,34.4,14.9,284.55,82.88,71.98,0,1010.08,49.086,30.44563,-84.30144,42.46,NaN,,0,12.903226,,14 / 15,39222,2018-04-16 20:38:24:125
-0.3567,-9.0551,-1.9777,0.067,-8.7886,-4.3504,-0.2652,-0.0309,1.8597,-1.752,-1.135,-0.9652,0,-0.2,23.2,31.6,194.85,72.51,168.99,0,1010.08,49.407,30.44563,-84.30144,42.46,NaN,,0,12.903226,,14 / 15,39321,2018-04-16 20:38:24:224
-1.7335,-4.2594,-1.9011,0.0657,-8.5784,-4.7514,-2.7786,2.7226,5.4426,-0.3922,-1.0751,-0.5388,0,2.1,19.6,34.7,173.55,63.66,-179.12,0,1010.09,49.407,30.44563,-84.30144,42.46,NaN,,0,12.903226,,14 / 15,39422,2018-04-16 20:38:24:325
1.4102,-11.9259,-7.9155,0.0657,-8.5784,-4.7514,-0.2578,1.5628,0.7144,1.73,-0.1784,0.1136,0,1.6,20.6,34.3,172.8,61.02,-179.21,0,1010.09,49.407,30.44563,-84.30144,42.46,NaN,,0,12.903226,,14 / 15,39522,2018-04-16 20:38:24:425
-1.1038,-7.6569,-4.3265,-0.0263,-9.2698,-3.2,-2.0691,-2.2457,-2.151,-0.777,-0.4068,-0.887,0,3.2,23.1,30.4,172.8,61.02,-179.21,0,1010.09,49.041,30.44563,-84.30144,42.46,NaN,,0,12.903226,,14 / 15,39622,2018-04-16 20:38:24:525
2.3248,0.1891,11.3896,0.4553,-9.1784,-3.4235,1.8958,9.2426,15.134,-0.9053,0.0513,-0.8625,0,4.1,23.9,29.8,157.25,69.38,-172.42,0,1010.09,49.041,30.44563,-84.30144,42.46,NaN,,0,12.903226,,14 / 15,39722,2018-04-16 20:38:24:625
6.1892,-15.1725,-1.2354,0.637,-9.2664,-3.1461,1.8958,9.2426,15.134,-0.9053,0.0513,-0.8625,0,4.2,25.4,28.6,151.64,70.89,-168.55,0,1010.1,49.041,30.44563,-84.30144,42.46,NaN,,0,12.903226,,14 / 15,39822,2018-04-16 20:38:24:725
-0.7135,-10.712,0.1604,-0.056,-9.716,-1.3289,-1.4917,3.0676,0.4572,0.7782,-1.113,-0.0305,0,4.2,25.4,28.6,151.64,70.89,-168.55,0,1010.1,48.995,30.44563,-84.30144,42.46,NaN,,0,12.903226,,14 / 15,39921,2018-04-16 20:38:24:824
-0.8667,-8.8492,-0.0311,-0.3544,-9.8002,5.00E-04,0.4245,1.8009,0.6739,0.9957,0.3763,-0.0354,0,3.6,26.5,27.1,172.98,82.2,177.59,0,1010.11,48.995,30.44563,-84.30144,42.46,NaN,,0,12.903226,,14 / 15,40021,2018-04-16 20:38:24:924
-0.9769,-9.115,0.6034,-0.3544,-9.8002,5.00E-04,-0.5107,0.6581,-0.0587,1.157,0.4178,0.2676,0,2.2,30.3,22.4,267.7,87.93,89.92,0,1010.11,48.995,30.44563,-84.30144,42.46,NaN,,0,12.903226,,14 / 15,40122,2018-04-16 20:38:25:025
0.4645,-9.8524,-1.0607,-0.7,-9.7035,1.2334,0.827,-0.9256,-2.4324,0.485,0.7563,0.3482,0,2.9,33,17.2,328.48,81.69,29.58,0,1010.12,48.995,30.44563,-84.30144,42.46,NaN,,0,12.903226,,14 / 15,40222,2018-04-16 20:38:25:125
1.4821,-10.7144,-1.5706,-1.1115,-9.6462,1.3733,1.3308,-3.0638,-1.5493,-0.485,0.3238,0.248,0,3.3,33.8,16.1,323.08,79.62,38.99,0,1010.12,47.666,30.44563,-84.30144,42.46,NaN,,0,12.903226,,14 / 15,40322,2018-04-16 20:38:25:225
-1.1971,-14.0281,-0.0407,-1.2216,-9.7202,0.4412,1.3308,-3.0638,-1.5493,-0.485,0.3238,0.248,0,3.6,34.3,15.6,290.58,82.39,70.14,0,1010.12,47.666,30.44563,-84.30144,42.46,NaN,,0,12.903226,,14 / 15,40421,2018-04-16 20:38:25:324
0.2251,-13.6976,3.1916,-0.1802,-9.4781,-2.5106,-6.1238,-2.4096,-1.065,-3.0042,0.7917,-0.8711,0,3.6,34.3,15.6,290.58,82.39,70.14,0,1010.12,47.666,30.44563,-84.30144,42.46,NaN,,0,12.903226,,14 / 15,40522,2018-04-16 20:38:25:425
-1.8627,-6.2969,-1.1588,0.4256,-8.8277,-4.2498,-1.0195,1.1017,2.7988,-2.1576,-1.4917,-1.1777,0,-2.4,25.2,28.9,190.77,75.13,175.89,0,1010.11,47.409,30.445633,-84.30138,31.02,NaN,,1.63,12.903226,,14 / 15,40622,2018-04-16 20:38:25:525
-2.5762,-5.4206,-0.2035,0.4256,-8.8277,-4.2498,-2.9445,3.0227,4.7709,-0.6243,-0.9175,-0.3103,0,-0.8,18.6,34.4,173.87,64.18,-174.28,0,1010.11,47.409,30.445633,-84.30138,31.02,NaN,,1.63,12.903226,,14 / 15,40721,2018-04-16 20:38:25:624
-0.8069,-5.1214,-1.9609,0.1702,-8.4235,-5.0184,-0.0071,2.4642,1.2943,1.9609,-0.1539,0.3543,0,1,17.9,35.3,174,59.2,-178.06,0,1010.11,47.409,30.445633,-84.30138,31.02,NaN,,1.63,12.903226,,14 / 15,40822,2018-04-16 20:38:25:725
1.8508,-15.4934,-13.3768,-0.2351,-9.2216,-3.3281,-5.9887,3.7924,0.9549,-1.3134,-2.7122,-1.047,0,1.2,19.6,33.1,183.14,70.11,175.96,0,1010.11,49.196,30.445633,-84.30138,31.02,NaN,,1.63,12.903226,,14 / 15,40922,2018-04-16 20:38:25:825
1.4174,-20.4399,-6.8788,0.1479,-9.0563,-3.7592,-5.9887,3.7924,0.9549,-1.3134,-2.7122,-1.047,0,2.8,19.8,32.4,168.93,67.44,-177.75,0,1010.12,49.196,30.445633,-84.30138,31.02,NaN,,1.63,12.903226,,14 / 15,41022,2018-04-16 20:38:25:925
0.4405,-19.5516,5.3273,0.0821,-9.45,-2.6192,-8.3478,11.4259,6.0968,1.664,0.3164,-0.463,0,2.8,19.8,32.4,168.93,67.44,-177.75,0,1010.12,49.196,30.445633,-84.30138,31.02,NaN,,1.63,12.903226,,14 / 15,41122,2018-04-16 20:38:26:025
-5.4111,-4.7526,-0.0479,-0.3771,-9.7609,-0.8677,-5.3876,4.8817,1.7821,1.394,-0.0147,-0.1161,0,3,21.6,30.7,170.56,74.5,-178.2,0,1010.11,49.196,30.445633,-84.30138,31.02,NaN,,1.63,12.903226,,14 / 15,41222,2018-04-16 20:38:26:125
-0.0599,-8.5571,0.3831,-0.3771,-9.7609,-0.8677,-0.1358,0.2702,0.2933,1.1936,0.0501,0.1173,0,3,25.7,26.4,198.75,84.46,156.51,0,1010.11,47.381,30.445633,-84.30138,31.02,NaN,,1.63,12.903226,,14 / 15,41322,2018-04-16 20:38:26:225
-1.4892,-9.1246,0.4717,-0.6028,-9.7728,0.5468,2.2342,-1.335,-2.6725,1.1154,0.5119,0.6805,0,3.6,29.1,21.2,306.53,85.24,47.79,0,1010.1,47.381,30.445633,-84.30138,31.02,NaN,,1.63,12.903226,,14 / 15,41421,2018-04-16 20:38:26:324
1.9681,-13.281,0.6704,-1.1389,-9.6582,1.2618,2.9895,-3.5801,-0.3388,-0.0134,0.2456,-0.0183,0,3.7,30,19.5,316.39,80.02,42.07,0,1010.1,47.381,30.445633,-84.30138,31.02,NaN,,1.63,12.903226,,14 / 15,41522,2018-04-16 20:38:26:425
-1.846,-12.8166,-3.5938,-0.9444,-9.7293,0.7872,2.9895,-3.5801,-0.3388,-0.0134,0.2456,-0.0183,0,4.1,31,18,306.83,82.8,50.19,0,1010.1,48.766,30.445633,-84.30138,31.02,NaN,,1.63,12.903226,,14 / 15,41621,2018-04-16 20:38:26:524
-3.9482,-14.9953,-0.4334,-0.696,-9.5572,-2.0843,-3.4311,0.6486,-0.9748,-2.7684,0.4276,-0.248,0,3.8,25.6,25,306.83,82.8,50.19,0,1010.1,48.766,30.445633,-84.30138,31.02,NaN,,1.63,12.903226,,14 / 15,41722,2018-04-16 20:38:26:625
0.5435,-8.8468,-2.0519,0.0748,-8.9003,-4.1169,0.5004,-1.6204,2.7283,-1.5003,-0.4655,-0.8699,0,3.8,25.6,25,306.83,82.8,50.19,0,1010.1,48.766,30.445633,-84.30138,31.02,NaN,,1.63,12.903226,,14 / 15,41822,2018-04-16 20:38:26:725
-3.0814,-5.3943,-0.0144,0.0748,-8.9003,-4.1169,-3.2993,3.321,4.4763,-1.0617,-1.1863,-0.9847,0,2.9,16.9,32.2,170.69,65.17,-178.96,0,1010.1,48.575,30.445633,-84.30138,31.02,NaN,,1.63,12.903226,,14 / 15,41922,2018-04-16 20:38:26:825
-1.2546,-5.4446,-2.6648,0.2792,-8.5191,-4.8495,-1.7634,2.1831,2.1717,1.2718,-0.1576,-0.044,0,4.5,14.8,33.8,170.69,65.17,-178.96,0,1010.11,48.575,30.445633,-84.30138,31.02,NaN,,1.63,12.903226,,14 / 15,42022,2018-04-16 20:38:26:925
1.0678,-12.7782,-8.6912,0.2012,-9.0777,-3.7046,1.5798,-7.0615,-12.0505,-0.0757,-0.0086,-0.6817,0,4.3,15.5,32.8,166.58,67.77,-176.89,0,1010.11,48.575,30.445633,-84.30138,31.02,NaN,,1.63,12.903226,,14 / 15,42121,2018-04-16 20:38:27:024
-1.6928,-3.1173,-1.6544,0.6769,-9.1347,-3.5027,1.5798,-7.0615,-12.0505,-0.0757,-0.0086,-0.6817,0,6.3,18,30.4,149.71,68.67,-169.06,0,1010.11,47.748,30.445633,-84.30138,31.02,NaN,,1.63,12.903226,,14 / 15,42222,2018-04-16 20:38:27:125
-0.0359,-13.305,1.0439,0.4659,-9.0802,-3.6746,-0.9105,-4.6452,-2.4337,0.6988,-0.3189,0.2077,0,7.3,19.5,28.5,149.9,67.81,-172.77,0,1010.11,47.748,30.445633,-84.30138,31.02,NaN,,1.63,12.903226,,14 / 15,42322,2018-04-16 20:38:27:225
6.1485,-16.0728,0.668,-0.0866,-9.6302,-1.8498,2.6954,-6.6449,4.6281,1.3219,1.2853,1.4392,0,7.4,21.1,27.2,165.92,79.11,177.32,0,1010.12,47.748,30.445633,-84.30138,31.02,NaN,,1.63,12.903226,,14 / 15,42422,2018-04-16 20:38:27:325
-0.4789,-10.9011,0.0192,-0.0866,-9.6302,-1.8498,-0.3887,-1.15,1.0573,1.113,1.0091,0.4056,0,7.4,21.1,27.2,165.92,79.11,177.32,0,1010.12,47.748,30.445633,-84.30138,31.02,NaN,,1.63,12.903226,,14 / 15,42522,2018-04-16 20:38:27:425
1.0487,-9.8381,-0.5914,-0.2582,-9.7914,-0.4816,0.4688,0.9815,-0.5872,0.9077,0.4142,0.0244,0,7.2,23.6,24.6,164,79.11,177.32,0,1010.11,48.391,30.445633,-84.30138,31.02,NaN,,1.63,12.903226,,14 / 15,42622,2018-04-16 20:38:27:525
-0.2418,-9.0575,-0.0455,-0.3756,-9.7878,0.4782,0.8382,-1.1062,-1.4247,0.9077,0.4142,0.0244,0,6.4,26.4,21.4,309.14,86.44,38.15,0,1010.11,48.391,30.445633,-84.30138,31.02,NaN,,1.63,12.903226,,15 / 15,42721,2018-04-16 20:38:27:624
-0.4597,-8.878,-0.5603,-0.8025,-9.6962,1.2289,0.8382,-1.1062,-1.4247,0.5021,1.0336,0.1478,0,6.4,28.4,18.7,317.25,81.39,33.15,0,1010.11,48.391,30.445633,-84.30138,31.02,NaN,,1.63,12.903226,,15 / 15,42822,2018-04-16 20:38:27:725
0.7087,-10.7072,-1.178,-0.8639,-9.7363,0.793,1.599,-0.8575,-3.2943,-0.5608,0.1539,0.4581,0,6.3,29.6,17.2,317.25,81.39,33.15,0,1010.11,48.653,30.445633,-84.30138,31.02,NaN,,1.63,12.903226,,15 / 15,42922,2018-04-16 20:38:27:825
-5.5619,-11.2028,-3.9458,-0.6019,-9.6717,-1.5051,-0.3088,-2.8607,-0.6061,-3.0824,0.7416,-0.4753,0,6.7,29.8,17.7,180.75,80.49,158.2,0,1010.11,48.653,30.445633,-84.30138,31.02,NaN,,1.63,12.903226,,15 / 15,43022,2018-04-16 20:38:27:925
1.6281,-13.0775,1.3384,-0.6019,-9.6717,-1.5051,1.8588,-3.74,4.3261,-3.0824,0.7416,-0.4753,0,6.7,29.8,17.7,180.75,80.49,158.2,0,1010.11,48.653,30.445633,-84.30138,31.02,NaN,,1.63,12.903226,,15 / 15,43122,2018-04-16 20:38:28:025
-1.9513,-5.8492,-1.0367,0.1638,-9.0137,-3.8595,-3.2275,3.6577,4.101,-1.8326,-1.8253,-1.0055,0,4.4,22,28.8,163.64,66.8,-177.57,0,1010.11,43.177,30.445633,-84.30138,31.02,NaN,,1.63,12.903226,,15 / 15,43221,2018-04-16 20:38:28:124
-2.7079,-5.4182,-0.7398,0.1396,-8.4413,-4.9895,-1.983,4.3128,3.1609,-0.314,-0.8271,-0.4789,0,7.7,19.1,31.3,155.76,66.8,-177.57,0,1010.11,43.177,30.445633,-84.30138,31.02,NaN,,1.63,12.903226,,15 / 15,43322,2018-04-16 20:38:28:225
-1.3623,-5.8827,-2.581,0.0965,-8.9332,-4.0447,-1.983,4.3128,3.1609,2.2675,0.2114,0.4215,0,6.7,19.6,31.2,158.68,65.63,-178.63,0,1010.08,43.177,30.445633,-84.30138,31.02,NaN,,1.63,12.903226,,15 / 15,43422,2018-04-16 20:38:28:325
0.2777,-15.1079,-12.1557,0.3306,-9.189,-3.4093,5.9995,-13.6502,-10.9399,-1.2572,-1.8851,-0.8845,0,8.6,23.9,27.1,146.36,65.63,-178.63,0,1010.08,41.568,30.445633,-84.30138,31.02,NaN,,1.63,12.903226,,15 / 15,43522,2018-04-16 20:38:28:425
1.7718,-9.9722,-3.5675,0.1629,-9.0935,-3.6677,1.836,-0.9226,0.2104,0.4875,0.6646,-0.4105,0,9.8,25,27.6,146.36,65.63,-178.63,0,1010.06,41.568,30.445633,-84.30138,31.02,NaN,,1.63,12.903226,,15 / 15,43622,2018-04-16 20:38:28:525
-4.8484,-6.5292,0.7853,0.1629,-9.0935,-3.6677,1.5774,-5.4641,4.8689,0.4875,0.6646,-0.4105,0,9.4,26.7,25.5,143.29,68.01,-177.46,0,1010.06,41.568,30.445633,-84.30138,31.02,NaN,,1.63,12.903226,,15 / 15,43723,2018-04-16 20:38:28:626
-4.767,-6.5268,-0.3232,-0.3952,-9.6746,-1.5545,-1.6761,1.3834,1.2522,1.3793,0.4264,-0.1894,0,9.4,26.7,25.5,143.29,68.01,-177.46,0,1010.06,41.568,30.445633,-84.30138,31.02,NaN,,1.63,12.903226,,15 / 15,43822,2018-04-16 20:38:28:725
2.0615,-9.5244,-0.3065,-0.8784,-9.767,-0.0608,0.7955,0.6942,-0.8923,1.0018,0.6414,0.2517,0,9.8,29.1,23.5,169.62,80.59,165.74,0,1010.06,43.611,30.445633,-84.30138,31.02,NaN,,1.63,12.903226,,15 / 15,43921,2018-04-16 20:38:28:824
-0.9386,-8.9163,-0.4022,-0.7861,-9.7175,1.0591,0.7955,0.6942,-0.8923,1.0446,0.0941,0.5241,0,8.8,32.6,19.5,169.62,80.59,165.74,0,1010.06,43.611,30.445633,-84.30138,31.02,NaN,,1.63,12.903226,,15 / 15,44022,2018-04-16 20:38:28:925
0.158,-11.3824,-1.0319,-1.1693,-9.6415,1.3581,1.2329,-1.7384,-2.4487,-0.171,0.0953,0.2443,0,8.8,35.1,16,305.87,82.27,36.58,0,1010.06,43.611,30.445633,-84.30138,31.02,NaN,,1.63,12.903226,,15 / 15,44122,2018-04-16 20:38:29:025
-1.0032,-9.0935,-1.2761,-1.2742,-9.7092,0.5278,3.2929,-2.5876,-0.6638,-1.5455,-0.2492,0.0012,0,8.9,35.9,14.4,305.16,79.47,40.73,0,1010.05,46.691,30.445633,-84.30138,31.02,NaN,,1.63,12.903226,,15 / 15,44221,2018-04-16 20:38:29:124
-1.7646,-12.8166,-0.5914,-1.2742,-9.7092,0.5278,-8.684,-1.6439,-2.8519,-1.5455,-0.2492,0.0012,0,9.3,35.6,16.6,279.7,81.92,67.5,0,1010.05,46.691,30.445633,-84.30138,31.02,NaN,,1.63,12.903226,,15 / 15,44322,2018-04-16 20:38:29:225
0.5243,-13.4103,2.6241,-0.7522,-9.4639,-2.4573,0.3971,-1.6721,1.2797,-2.4972,1.4368,-0.4728,0,4.3,26.3,32.9,193.26,74.81,162.98,0,1010.05,46.691,30.445633,-84.30138,31.02,NaN,,1.63,12.903226,,15 / 15,44422,2018-04-16 20:38:29:325
-1.5347,-7.5707,-1.1804,0.3086,-8.8619,-4.1882,-3.0646,2.8049,5.1136,-1.7239,-1.7715,-1.2401,0,4.3,26.3,32.9,193.26,74.81,162.98,0,1010.05,44.232,30.445633,-84.30138,31.02,NaN,,1.63,12.903226,,15 / 15,44522,2018-04-16 20:38:29:425
-3.2371,-5.0783,-0.6967,0.1594,-8.4218,-5.0218,-3.0646,2.8049,5.1136,0.2786,-0.5901,-0.0831,0,5.8,21.3,34.7,158.88,64.64,-175.79,0,1010.04,44.232,30.445633,-84.30138,31.02,NaN,,1.63,12.903226,,15 / 15,44621,2018-04-16 20:38:29:524
-0.498,-6.3329,-2.2291,-0.1483,-9.1111,-3.6243,-0.5626,2.3211,2.3833,1.9145,-0.7917,0.055,0,5.5,22.8,34.8,158.56,59.18,-178.18,0,1010.04,44.232,30.445656,-84.30133,29.21,NaN,,0,12.903226,,15 / 15,44722,2018-04-16 20:38:29:625
2.6265,-16.8341,-13.8341,0.1634,-9.1348,-3.5635,-1.6082,-2.3416,-6.2151,-0.1955,-0.9139,0.0342,0,6.6,24.7,32.4,164.66,68.29,177.66,0,1010.03,44.03,30.445656,-84.30133,29.21,NaN,,0,12.903226,,15 / 15,44822,2018-04-16 20:38:29:725
-10.6282,1.6712,1.7766,0.1634,-9.1348,-3.5635,5.6436,4.1705,10.1884,-0.1955,-0.9139,0.0342,0,8.4,25.4,31.6,164.66,68.29,177.66,0,1010.03,44.03,30.445656,-84.30133,29.21,NaN,,0,12.903226,,15 / 15,44921,2018-04-16 20:38:29:824
-6.2347,-4.0822,-1.9633,0.4532,-9.2734,-3.1573,-1.7665,2.2735,0.755,1.6041,0.3067,1.295,0,8.1,27,29.7,146.24,71.02,-171.83,0,1010.03,44.03,30.445656,-84.30133,29.21,NaN,,0,12.903226,,15 / 15,45022,2018-04-16 20:38:29:925
0.5842,-8.0974,-0.2083,-0.2853,-9.7095,-1.3472,1.1156,1.6769,0.3838,1.3635,1.8265,0.6842,0,7.4,29.3,26.7,176.95,81.93,168.04,0,1010.03,44.03,30.445656,-84.30133,29.21,NaN,,0,12.903226,,15 / 15,45122,2018-04-16 20:38:30:025
-0.079,-8.7654,-0.0096,-0.5035,-9.7937,-0.0171,1.1156,1.6769,0.3838,1.0653,0.6377,0.1417,0,7.4,29.3,26.7,176.95,81.93,168.04,0,1010.03,46.836,30.445656,-84.30133,29.21,NaN,,0,12.903226,,15 / 15,45222,2018-04-16 20:38:30:125
0.1197,-10.1541,-0.4262,-0.7376,-9.7257,1.018,0.0416,0.2969,0.0999,1.0629,0.3653,0.4679,0,6,32.3,23.3,257.32,87.06,91.95,0,1010.03,46.836,30.445656,-84.30133,29.21,NaN,,0,12.903226,,15 / 15,45322,2018-04-16 20:38:30:225
1.9609,-11.6505,1.8268,-1.0087,-9.6773,1.2261,1.6649,-1.0471,-1.9782,-0.0379,0.4887,0.0586,0,5.9,35.2,19,315.44,82.63,35.92,0,1010.04,46.836,30.445656,-84.30133,29.21,NaN,,0,12.903226,,15 / 15,45422,2018-04-16 20:38:30:325
1.2354,-12.5723,-0.1053,-1.0087,-9.6773,1.2261,2.1523,-2.8603,-1.1083,-0.0379,0.4887,0.0586,0,5.6,36.1,17.4,314.23,80.68,39.44,0,1010.04,44.557,30.445656,-84.30133,29.21,NaN,,0,12.903226,,15 / 15,45522,2018-04-16 20:38:30:425
-5.8899,-9.8093,-4.2355,-0.9321,-9.7589,0.2536,-3.5009,-1.8707,0.0925,-2.2345,0.5657,-0.2321,0,5.6,36.1,17.3,277.06,84.35,74.78,0,1010.04,44.557,30.445656,-84.30133,29.21,NaN,,0,12.903226,,15 / 15,45622,2018-04-16 20:38:30:525
1.1564,-10.3241,0.0168,-0.5156,-9.3536,-2.9009,-0.4464,0.0309,1.8003,-1.7776,0.7587,-0.391,0,2.5,24.9,29.8,277.06,84.35,74.78,0,1010.04,44.557,30.445656,-84.30133,29.21,NaN,,0,12.903226,,15 / 15,45722,2018-04-16 20:38:30:625
-2.5044,-6.7806,-1.1588,-0.1067,-8.8656,-4.1904,-0.4464,0.0309,1.8003,-1.2901,-1.0592,-1.179,0,4.4,20.1,34.6,172.36,64.69,178.54,0,1010.05,46.706,30.445656,-84.30133,29.21,NaN,,0,12.903226,,15 / 15,45821,2018-04-16 20:38:30:724
-2.4374,-3.9745,-1.9849,0.0439,-8.7094,-4.5071,-2.2666,3.7114,4.2403,0.8992,-0.2932,-0.0464,0,4.4,20.1,34.6,172.36,64.69,178.54,0,1010.05,46.706,30.445656,-84.30133,29.21,NaN,,0,12.903226,,15 / 15,45921,2018-04-16 20:38:30:824
-0.8093,-6.7327,-3.0958,-0.2607,-9.3974,-2.7911,-0.7297,2.3132,0.6903,0.8687,-0.4337,-0.551,0,4.5,20.7,33.8,165.42,62.64,-179.44,0,1010.06,46.706,30.445656,-84.30133,29.21,NaN,,0,12.903226,,15 / 15,46022,2018-04-16 20:38:30:925
-3.3664,-7.427,-5.5595,-0.2607,-9.3974,-2.7911,-4.3779,5.7877,2.2482,0.8687,-0.4337,-0.551,0,6.8,22.3,31.5,165.42,62.64,-179.44,0,1010.06,46.854,30.445656,-84.30133,29.21,NaN,,0,12.903226,,15 / 15,46122,2018-04-16 20:38:31:025
4.9849,-17.4974,-5.435,-0.0064,-9.2348,-3.2997,-7.5288,11.4104,10.5252,0.1906,0.1662,0.1087,0,7.4,23.7,29.8,161.02,70.34,179.89,0,1010.07,46.854,30.445656,-84.30133,29.21,NaN,,0,12.903226,,15 / 15,46222,2018-04-16 20:38:31:125
5.4398,-18.4335,2.5212,0.0657,-9.4481,-2.6264,-3.2588,3.603,0.9536,1.6029,1.2657,1.4001,0,7.5,25,28.9,161.02,70.34,179.89,0,1010.07,46.854,30.445656,-84.30133,29.21,NaN,,0,12.903226,,15 / 15,46322,2018-04-16 20:38:31:225
0.0814,-11.7176,0.6153,-0.4936,-9.7463,-0.9673,-3.2588,3.603,0.9536,1.0592,0.3897,0.3384,0,8,26.6,26.4,191.22,83.64,152.97,0,1010.09,46.854,30.445656,-84.30133,29.21,NaN,,0,12.903226,,15 / 15,46422,2018-04-16 20:38:31:325
0.4525,-9.6441,-0.8021,-0.6224,-9.7854,0.1692,0.7288,0.4786,0.0617,0.9456,0.1894,0.1393,0,8.6,30.4,21.3,266.97,86.23,74.79,0,1010.09,45.414,30.445656,-84.30133,29.21,NaN,,0,12.903226,,15 / 15,46522,2018-04-16 20:38:31:425
-0.9888,-9.048,0.6225,-1.0844,-9.6752,1.1765,-0.186,0.7058,-0.0012,1.0238,0.259,0.4618,0,9.1,31.9,18.6,265.61,86.23,74.79,0,1010.09,45.414,30.445656,-84.30133,29.21,NaN,,0,12.903226,,15 / 15,46623,2018-04-16 20:38:31:526
0.5603,-10.6665,-0.4453,-1.0844,-9.6752,1.1765,2.5605,-1.5983,-1.9537,1.0238,0.259,0.4618,0,9.1,31.9,18.6,265.61,86.23,74.79,0,1010.09,45.414,30.445656,-84.30131,29.1,NaN,,1.5,9.677419,,15 / 15,46722,2018-04-16 20:38:31:625
2.7175,-12.4622,-0.9888,-1.1704,-9.6737,1.1046,0.0546,-3.8445,-3.5661,-0.1136,0.562,0.0929,0,9.8,33.2,16.2,299.52,80.61,42.67,0,1010.1,44.864,30.445656,-84.30131,29.1,81.6388456,,1.5,9.677419,,15 / 15,46822,2018-04-16 20:38:31:725
-6.0599,-10.5564,0.1293,-0.8576,-9.7391,-0.7639,-1.1291,-3.5269,6.4198,-2.832,-0.1405,-0.7049,0,10.3,33.5,15.2,295.72,80.55,46.66,0,1010.1,44.864,30.445656,-84.30131,29.1,81.6388456,,1.5,9.677419,,15 / 15,46922,2018-04-16 20:38:31:825
-0.7279,-7.7982,-0.8356,-0.3335,-9.1899,-3.4065,-1.1291,-3.5269,6.4198,-1.8631,-1.0861,-0.8186,0,7.1,24.7,29.9,218.79,83.27,131.69,0,1010.1,44.864,30.445656,-84.30131,29.1,81.6388456,,1.5,9.677419,,15 / 15,47022,2018-04-16 20:38:31:925
-2.7798,-5.3512,-1.3504,0.0093,-8.7256,-4.476,-2.0139,2.2013,2.632,-0.8687,-1.113,-0.8063,0,7.6,20.3,33.8,169.65,69.57,174.41,0,1010.1,44.505,30.445656,-84.30131,29.1,81.6388456,,1.5,9.677419,,15 / 15,47122,2018-04-16 20:38:32:025
-1.9944,-5.4158,-2.004,0.102,-8.8643,-4.1932,-1.824,5.1948,2.4078,1.4612,0.7514,0.3299,0,7.8,21,33.4,157.79,62.84,-179.88,0,1010.1,44.505,30.445656,-84.30131,29.1,81.6388456,,1.5,9.677419,,15 / 15,47222,2018-04-16 20:38:32:125
3.613,-18.637,-14.483,0.102,-8.8643,-4.1932,2.1606,-4.0182,-7.113,1.4612,0.7514,0.3299,0,7.8,21,33.4,157.79,62.84,-179.88,0,1010.1,44.505,30.445656,-84.30131,29.1,81.6388456,,1.5,9.677419,,15 / 15,47322,2018-04-16 20:38:32:225
-2.1165,-14.1382,-2.9162,0.1204,-9.4387,-2.6584,-4.7418,0.8031,1.1961,-0.7905,1.0434,-1.2254,0,8.2,22.5,32.2,155.1,64.68,-178.61,0,1010.09,45.58,30.445656,-84.30131,29.1,81.6388456,,1.5,9.677419,,15 / 15,47421,2018-04-16 20:38:32:324
-8.8612,-0.2251,4.6449,0.0958,-9.2798,-3.1696,-3.9421,-1.0287,-0.1648,-1.0519,0.5437,-0.788,0,8.4,24.2,30.6,157.74,74.25,-177.41,0,1010.09,45.58,30.445656,-84.30131,29.1,81.6388456,,1.5,9.677419,,15 / 15,47522,2018-04-16 20:38:32:425
-1.573,-8.684,-0.352,-0.0154,-9.6511,-1.7396,-3.9421,-1.0287,-0.1648,0.9982,-0.452,0.1319,0,7.9,26.2,28.9,162.12,79.78,179.49,0,1010.09,45.58,30.445656,-84.30131,29.1,81.6388456,,1.5,9.677419,,15 / 15,47622,2018-04-16 20:38:32:525
1.269,-10.0871,-0.2921,-0.4715,-9.7914,-0.2762,-1.3227,-0.7701,1.0744,0.9982,-0.452,0.1319,0,7.6,28.8,26.2,162.12,79.78,179.49,0,1010.09,45.58,30.445656,-84.30129,29.05,81.6388456,,2.28,9.677419,,15 / 15,47721,2018-04-16 20:38:32:624
1.1588,-9.6058,-0.2682,-0.586,-9.7463,0.9145,1.741,0.177,-0.6246,1.1203,0.2248,0.1686,0,8.3,31.8,19.9,312.38,83.64,32.65,0,1010.08,45.9,30.445656,-84.30129,29.05,80.51104441,,2.28,9.677419,,15 / 15,47822,2018-04-16 20:38:32:725
-1.5012,-9.6202,-0.5938,-0.586,-9.7463,0.9145,0.0333,-0.6108,-2.4935,1.0091,0.3433,0.4704,0,8.3,31.8,19.9,312.38,83.64,32.65,0,1010.08,45.9,30.445656,-84.30129,29.05,80.51104441,,2.28,9.677419,,15 / 15,47922,2018-04-16 20:38:32:825
0.1891,-9.4861,-1.7742,-1.1355,-9.5957,1.6741,4.0424,-2.1514,-0.2997,-0.1063,0.4081,0.3433,0,8.9,33.6,15.5,307.26,83.64,32.65,0,1010.07,45.9,30.445656,-84.30129,29.05,80.51104441,,2.28,9.677419,,15 / 15,48022,2018-04-16 20:38:32:925
-0.3903,-11.9091,-0.6991,-1.1811,-9.6395,1.3619,-0.7082,-2.44,-2.5373,-1.9731,-0.2676,-0.1808,0,9,34.4,14.5,311.86,78.1,34.15,0,1010.07,46.636,30.445656,-84.30129,29.05,80.51104441,,2.28,9.677419,,15 / 15,48122,2018-04-16 20:38:33:025
-6.9721,-9.8213,-3.1964,-0.9482,-9.7337,-0.7256,-0.7082,-2.44,-2.5373,-1.9731,-0.2676,-0.1808,0,9.3,34.5,14.7,208.47,83.01,127.42,0,1010.06,46.636,30.445656,-84.30129,29.05,80.51104441,,2.28,9.677419,,15 / 15,48222,2018-04-16 20:38:33:125
-1.3504,-11.8086,3.7327,-0.2579,-9.2985,-3.105,-0.7029,-2.2843,5.9774,-1.8973,1.146,-0.6695,0,5.9,26,28.4,168.9,71.48,175.25,0,1010.06,46.636,30.445656,-84.30129,29.05,80.51104441,,2.28,9.677419,,15 / 15,48322,2018-04-16 20:38:33:225
-1.2953,-7.9777,-1.3121,-0.0637,-8.8583,-4.2068,-1.6631,1.585,2.9813,-1.5223,-0.8674,-0.8503,0,5.8,20.4,33.9,166.13,64.59,179.13,0,1010.06,47.61,30.445656,-84.30129,29.05,80.51104441,,2.28,9.677419,,15 / 15,48421,2018-04-16 20:38:33:324
-2.186,-5.2722,-1.6808,-0.0637,-8.8583,-4.2068,-0.6325,3.9063,2.3257,0.441,-0.1991,-0.3506,0,5.8,20.4,33.9,166.13,64.59,179.13,0,1010.06,47.61,30.445656,-84.30129,29.05,80.51104441,,2.28,9.677419,,15 / 15,48522,2018-04-16 20:38:33:425
-0.9266,-6.5388,-1.19,0.0878,-9.0305,-3.8227,-1.3561,-3.2255,-6.0906,2.116,-0.4997,-0.099,0,6,21.8,33.9,163.3,67.05,-178.68,0,1010.07,47.61,30.445652,-84.30128,29,80.51104441,,2.62,9.677419,,15 / 15,48622,2018-04-16 20:38:33:525
2.1525,-20.6363,-19.6354,0.0735,-9.4984,-2.4383,-2.1578,0.2352,1.4935,0.193,-0.9762,0.6048,0,7,25,30.4,160.75,75.6,-178.27,0,1010.07,44.728,30.445652,-84.30128,29,80.51104441,,2.62,9.677419,,15 / 15,48722,2018-04-16 20:38:33:625
-15.3305,1.1516,0.1173,-0.0918,-9.2733,-3.1887,-2.1578,0.2352,1.4935,0.193,-0.9762,0.6048,0,7.9,24.9,29.8,158.5,75.6,-178.27,0,1010.08,44.728,30.445652,-84.30128,29,80.51104441,,2.62,9.677419,,15 / 15,48822,2018-04-16 20:38:33:725
-0.3184,-8.6122,-1.1971,-0.3209,-9.6597,-1.6604,-5.3183,-1.4243,1.7265,1.1179,-0.832,1.4392,0,7.8,26.5,28.1,173.94,80.07,169.06,0,1010.08,44.728,30.445652,-84.30128,29,80.51104441,,2.62,9.677419,,15 / 15,48921,2018-04-16 20:38:33:824
0.7638,-9.6657,-1.1923,-0.5014,-9.7885,-0.3227,-0.9126,-1.4388,1.3105,1.2816,1.4673,0.3567,0,7.8,27.9,26.3,222.61,86.51,122.77,0,1010.09,44.728,30.445652,-84.30128,29,80.51104441,,2.62,9.677419,,15 / 15,49022,2018-04-16 20:38:33:925
-0.4358,-9.3329,-0.8667,-0.5014,-9.7885,-0.3227,0.9607,0.058,-1.3003,0.9041,0.1429,0.0916,0,7.8,27.9,26.3,222.61,86.51,122.77,0,1010.09,44.227,30.445652,-84.30128,29,80.51104441,,2.62,9.677419,,15 / 15,49122,2018-04-16 20:38:34:025
-0.5387,-10.6378,-0.6345,-0.5542,-9.7731,0.591,0.3347,-0.9191,-1.6121,0.7929,0.5828,0.661,0,7.4,30.1,23.5,223.93,86.51,122.77,0,1010.09,44.227,30.445652,-84.30128,29,80.51104441,,2.62,9.677419,,15 / 15,49222,2018-04-16 20:38:34:125
2.332,-11.2076,1.3408,-1.227,-9.6462,1.2709,2.3948,-1.5307,-1.5952,0.0867,0.1429,0.2175,0,7.1,32,20.9,308.92,79.62,43.99,0,1010.09,44.227,30.445652,-84.30128,29,80.51104441,,2.62,9.677419,,15 / 15,49322,2018-04-16 20:38:34:225
1.2331,-14.2747,-1.5706,-1.1106,-9.6945,0.9761,2.3948,-1.5307,-1.5952,0.0867,0.1429,0.2175,0,7.6,32.8,18.9,306.3,79.62,43.99,0,1010.08,46.728,30.445652,-84.30128,29,80.51104441,,2.62,9.677419,,15 / 15,49422,2018-04-16 20:38:34:325
-3.9601,-12.898,0.6632,-0.7886,-9.6637,-1.4698,-2.3269,-0.9956,-1.3798,-2.3677,0.259,-0.4484,0,7.9,32.4,19.6,300.45,81.33,48.69,0,1010.08,46.728,30.445652,-84.30128,29,80.51104441,,2.62,9.677419,,15 / 15,49522,2018-04-16 20:38:34:425
-0.6441,-10.439,-1.6018,-0.0696,-9.2224,-3.3334,0.2867,-2.4321,5.3499,-1.1558,0.5278,-0.6683,0,5.1,24.9,32,300.45,81.33,48.69,0,1010.08,46.728,30.445652,-84.30126,28.96,80.51104441,,2.76,9.677419,112.12,15 / 15,49622,2018-04-16 20:38:34:525
-1.8747,-6.9889,-0.826,-0.0696,-9.2224,-3.3334,-2.0153,2.0528,2.9684,-1.0238,-0.9835,-1.1044,0,7.1,22.2,30.6,163.76,70.12,178.8,0,1010.08,44.629,30.445652,-84.30126,28.96,80.51104441,,2.76,9.677419,112.12,15 / 15,49722,2018-04-16 20:38:34:625
-2.9857,-3.7255,-2.4948,0.3164,-8.8811,-4.1468,-1.9441,4.027,1.1754,0.6793,-0.0782,0.2932,0,7.1,22.2,30.6,163.76,70.12,178.8,0,1010.07,44.629,30.445652,-84.30126,28.96,80.51104441,,2.76,9.677419,112.12,15 / 15,49822,2018-04-16 20:38:34:725
0.4334,-8.3536,-4.2666,0.0221,-9.1074,-3.6366,2.2036,-2.5604,-5.908,1.0116,-0.0171,-0.3641,0,6.5,21.7,31.6,153.74,64.91,-175.64,0,1010.07,44.629,30.445652,-84.30126,28.96,80.51104441,,2.76,9.677419,112.12,15 / 15,49922,2018-04-16 20:38:34:825
-0.7039,-12.6202,-9.2634,0.2912,-9.3693,-2.8812,2.2036,-2.5604,-5.908,1.0116,-0.0171,-0.3641,0,7.3,21.5,31.1,153.74,64.91,-175.64,0,1010.07,45.495,30.445652,-84.30126,28.96,80.51104441,,2.76,9.677419,112.12,15 / 15,50022,2018-04-16 20:38:34:925
0.2155,-20.0688,-6.8189,0.2523,-9.1996,-3.3873,-3.2558,-2.6629,-1.766,0.2065,-0.5046,0.3115,0,7.5,23.1,29.7,152.36,72.82,-174.23,0,1010.07,45.495,30.445652,-84.30126,28.96,80.51104441,,2.76,9.677419,112.12,15 / 15,50122,2018-04-16 20:38:35:025
-0.1413,-15.7232,-0.103,-0.1312,-9.6656,-1.6518,-0.5263,-6.3028,2.5947,1.3806,0.584,1.5211,0,7.4,24.6,28.6,153.07,69.73,-175.74,0,1010.08,45.495,30.445652,-84.30126,28.96,80.51104441,,2.76,9.677419,112.12,15 / 15,50222,2018-04-16 20:38:35:125
-2.8707,-7.0679,-0.6273,-0.1312,-9.6656,-1.6518,-0.2713,-1.1667,1.084,1.3305,1.5858,0.4276,0,7.3,25.6,27.2,153.07,69.73,-175.74,0,1010.08,45.495,30.445652,-84.30126,28.96,80.51104441,,2.76,9.677419,112.12,15 / 15,50322,2018-04-16 20:38:35:225
0.486,-8.6146,0.1149,-0.4053,-9.7914,-0.3666,0.8164,0.7665,-0.7717,1.0641,0.1344,0.1429,0,6.7,28,23.7,213.64,86.81,132.13,0,1010.08,45.987,30.445652,-84.30126,28.96,80.51104441,,2.76,9.677419,112.12,15 / 15,50422,2018-04-16 20:38:35:325
-0.1508,-10.5611,0.1125,-0.5268,-9.7671,0.7051,0.6679,-0.8683,-1.1322,1.1277,0.5266,0.5705,0,6.8,29.9,20.9,310.04,84.85,36.76,0,1010.08,45.987,30.445652,-84.30126,28.96,80.51104441,,2.76,9.677419,112.12,15 / 15,50522,2018-04-16 20:38:35:425
0.656,-9.352,-0.668,-1.1175,-9.6081,1.6141,0.6679,-0.8683,-1.1322,1.1277,0.5266,0.5705,0,6.8,29.9,20.9,310.04,84.85,36.76,0,1010.08,45.987,30.445648,-84.301254,28.96,80.51104441,,2.79,12.903226,110.78,15 / 15,50621,2018-04-16 20:38:35:524
2.5906,-14.0472,1.3288,-1.0859,-9.6376,1.4521,2.158,-1.4967,0.5248,0.1637,0.314,0.1332,0,7.2,31.6,17.7,316.73,78.45,34.7,0,1010.08,46.011,30.445648,-84.301254,28.96,80.51104441,,2.79,12.903226,110.78,15 / 15,50722,2018-04-16 20:38:35:625
-4.9466,-10.6665,-3.4166,-0.8918,-9.743,-0.6701,-2.836,0.2574,-4.2344,-1.8216,0.2028,-0.4081,0,7.9,32.6,16,311.18,79.34,36.79,0,1010.08,46.011,30.445648,-84.301254,28.96,80.51104441,,2.79,12.903226,110.78,15 / 15,50822,2018-04-16 20:38:35:725
1.6688,-11.4997,1.8867,-0.8918,-9.743,-0.6701,-0.7042,-2.8736,5.4987,-1.7129,1.1802,-0.5534,0,7.2,28.2,22.5,221.38,83.47,126.92,0,1010.08,46.011,30.445648,-84.301254,28.96,80.51104441,,2.79,12.903226,110.78,15 / 15,50922,2018-04-16 20:38:35:825
-3.9793,-4.7335,-0.4118,-0.1632,-9.2792,-3.1685,-4.1373,4.2835,3.4404,-1.4746,-1.5027,-1.1362,0,5.5,22,31.9,169.48,71.12,177.05,0,1010.08,45.31,30.445648,-84.301254,28.96,80.51104441,,2.79,12.903226,110.78,15 / 15,51021,2018-04-16 20:38:35:924
-3.0766,-5.6625,-0.4669,0.2291,-8.7699,-4.3825,-2.1636,3.8925,2.8963,0.8259,-0.0476,-0.0232,0,6.2,20.8,32.6,169.48,71.12,177.05,0,1010.08,45.31,30.445648,-84.301254,28.96,80.51104441,,2.79,12.903226,110.78,15 / 15,51122,2018-04-16 20:38:36:025
-0.7303,-6.5962,-4.5802,0.1476,-9.08,-3.7016,-2.1636,3.8925,2.8963,0.8259,-0.0476,-0.0232,0,5.7,21.1,32.5,161.91,67.81,-177.72,0,1010.08,45.31,30.445648,-84.301254,28.96,80.51104441,,2.79,12.903226,110.78,15 / 15,51221,2018-04-16 20:38:36:124
-2.7391,-8.2722,-8.4662,0.3807,-9.2958,-3.1005,6.7554,-13.7022,-10.8228,0.9102,-0.8344,-0.1869,0,5.7,21.1,32.5,161.91,67.81,-177.72,0,1010.08,45.186,30.445648,-84.301254,28.96,80.51104441,,2.79,12.903226,110.78,15 / 15,51322,2018-04-16 20:38:36:225
0.4932,-17.2651,-3.7758,0.3291,-9.1428,-3.5315,1.3094,-4.0574,-1.2277,0.0929,-0.9774,0.2822,0,6.4,22.5,30.7,155.29,71.43,-173,0,1010.1,45.186,30.445648,-84.301254,28.96,80.51104441,,2.79,12.903226,110.78,15 / 15,51422,2018-04-16 20:38:36:325
3.8739,-17.0592,2.6385,0.3291,-9.1428,-3.5315,3.8482,-7.5911,5.1927,1.6884,0.8454,1.3317,0,7.1,24,28.6,151.29,68.8,-174.68,0,1010.1,45.186,30.445648,-84.301254,28.96,80.51104441,,2.79,12.903226,110.78,15 / 15,51522,2018-04-16 20:38:36:425
-5.0304,-6.9961,-1.4701,-0.2467,-9.6709,-1.6071,0.3823,-0.7204,0.1068,1.2718,1.4233,0.6964,0,7.7,24.9,26.7,151.29,68.8,-174.68,0,1010.08,45.186,30.445648,-84.30124,28.96,80.51104441,,2.87,12.903226,110.07,15 / 15,51621,2018-04-16 20:38:36:524
1.4509,-8.7798,1.2857,-0.7479,-9.7767,-0.1627,0.5918,0.2221,-1.2886,1.1203,0.606,0.088,0,7.1,28.1,22.4,245.08,85.52,102.27,0,1010.08,46.898,30.445648,-84.30124,28.96,80.51104441,,2.87,12.903226,110.07,15 / 15,51721,2018-04-16 20:38:36:624
-0.3184,-8.696,0.2897,-0.7357,-9.7295,0.9823,0.5918,0.2221,-1.2886,1.1203,0.606,0.088,0,6.7,30,20.3,245.08,85.52,102.27,0,1010.08,46.898,30.445648,-84.30124,28.96,80.51104441,,2.87,12.903226,110.07,15 / 15,51822,2018-04-16 20:38:36:725
0.0575,-10.2164,-0.6393,-1.1012,-9.6364,1.4479,0.6554,-0.4475,-2.1697,0.7343,0.2382,0.4801,0,5.5,31.5,18.5,316.62,79.31,37.25,0,1010.08,46.898,30.445648,-84.30124,28.96,80.51104441,,2.87,12.903226,110.07,15 / 15,51922,2018-04-16 20:38:36:825
0.1604,-10.8868,-1.4581,-1.1769,-9.6738,1.0968,1.325,-1.2447,-2.8163,0.1417,0.4972,0.1148,0,5.2,32.7,16.8,309.88,80.56,47.02,0,1010.1,44.767,30.445648,-84.30124,28.96,80.51104441,,2.87,12.903226,110.07,15 / 15,52022,2018-04-16 20:38:36:925
2.684,-12.5915,-1.3001,-1.1769,-9.6738,1.0968,1.338,-3.7981,-2.3756,-1.5479,-0.821,-0.0134,0,5.2,32.7,16.8,309.88,80.56,47.02,0,1010.1,44.767,30.445648,-84.30124,28.96,80.51104441,,2.87,12.903226,110.07,15 / 15,52122,2018-04-16 20:38:37:025
-4.7814,-12.8716,-0.079,-1.1231,-9.717,-0.6985,-0.6301,-4.847,3.8104,-2.3237,2.0818,-0.5938,0,6.2,32.5,16.8,307.14,80.56,47.02,0,1010.07,44.767,30.445648,-84.30124,28.96,80.51104441,,2.87,12.903226,110.07,15 / 15,52221,2018-04-16 20:38:37:124
1.4222,-10.6473,-3.3017,-0.216,-9.171,-3.4666,-1.9729,1.5593,3.3924,-1.3659,-1.2975,-1.4881,0,4.4,23.3,29.5,173.96,69.26,176.43,0,1010.07,46.031,30.445648,-84.30124,28.96,80.51104441,,2.87,12.903226,110.07,15 / 15,52321,2018-04-16 20:38:37:224
-2.3775,-6.1413,1.2977,0.5176,-8.6795,-4.5351,-1.9729,1.5593,3.3924,-1.3659,-1.2975,-1.4881,0,3.6,19.1,33.7,159.24,62.26,-173.49,0,1010.07,46.031,30.445648,-84.30124,28.96,80.51104441,,2.87,12.903226,110.07,15 / 15,52422,2018-04-16 20:38:37:325
-2.3799,-4.3169,-1.7406,0.3546,-8.7421,-4.4295,-2.842,4.2356,3.0355,0.2553,-0.7367,-0.3054,0,4.5,19.9,32,154.87,62.26,-173.49,0,1010.07,46.031,30.445648,-84.30124,28.96,80.51104441,,2.87,12.903226,110.07,15 / 15,52522,2018-04-16 20:38:37:425
