ACCELEROMETER X (m/s²),ACCELEROMETER Y (m/s²),ACCELEROMETER Z (m/s²),GRAVITY X (m/s²),GRAVITY Y (m/s²),GRAVITY Z (m/s²),LINEAR ACCELERATION X (m/s²),LINEAR ACCELERATION Y (m/s²),LINEAR ACCELERATION Z (m/s²),GYROSCOPE X (rad/s),GYROSCOPE Y (rad/s),GYROSCOPE Z (rad/s),LIGHT (lux),MAGNETIC FIELD X (μT),MAGNETIC FIELD Y (μT),MAGNETIC FIELD Z (μT),ORIENTATION Z (azimuth °),ORIENTATION X (pitch °),ORIENTATION Y (roll °),PROXIMITY (i),ATMOSPHERIC PRESSURE (hPa),SOUND LEVEL (dB),LOCATION Latitude : ,LOCATION Longitude : ,LOCATION Altitude ( m),LOCATION Altitude-google ( m),LOCATION Altitude-atmospheric pressure ( m),LOCATION Speed ( Kmh),LOCATION Accuracy ( m),LOCATION ORIENTATION (°),Satellites in range,Time since start in ms ,YYYY-MO-DD HH-MI-SS_SSS
2.571451,5.667248,8.870789,0.617984,5.614101,8.016874,2.226415,0.012445,-0.137315,0.483805,-0.222355,-1.246165,137,-54,-27.7,-47.7,84.1422,-30.8684,-9.1513,3.15,1010.2842,37.86307,30.445263,-84.300545,98.8026,NaN,,0,103.22581,,0 / 2,22,2018-04-16 21:16:53:033
3.895485,4.309695,6.543553,0.617984,5.614101,8.016874,2.226415,0.012445,-0.137315,0.483805,-0.222355,-1.246165,146,-50.9,-31.8,-46.9,86.5672,-34.9233,-4.408,3.15,1010.2842,37.86307,30.445263,-84.300545,98.8026,NaN,,0,103.22581,,7-Jul,121,2018-04-16 21:16:53:132
-2.121327,5.016006,9.244295,-1.171748,6.671845,7.091103,-0.286365,-0.394056,0.165944,2.257758,2.723237,-2.433687,146,-27.8,-50.7,-39.5,112.8284,-42.8702,9.3829,0,1010.2917,37.86307,30.445263,-84.300545,98.8026,NaN,,0,103.22581,,7-Jul,221,2018-04-16 21:16:53:232
-9.126976,7.905895,1.94894,-3.71717,7.619706,4.928781,-2.993981,-0.566172,-1.090758,2.912606,-0.036652,-1.615128,85,-20.9,-61.5,-27.7,132.5393,-50.9862,37.0227,0,1010.2917,39.34158,30.445263,-84.300545,98.8026,NaN,,0,103.22581,,7-Jul,322,2018-04-16 21:16:53:333
-6.395108,6.639324,0.21309,-4.397242,8.304488,2.805319,-1.997866,-1.665164,-2.592229,1.390329,0.312763,-0.117286,85,-18.5,-66.6,-23.2,142.5905,-57.8678,57.4633,0,1010.2971,39.34158,30.445263,-84.300545,98.8026,NaN,,0,103.22581,,7-Jul,422,2018-04-16 21:16:53:433
-4.12773,9.854836,1.515576,-5.492301,8.10291,0.589532,-0.938721,5.331366,-3.647021,2.459344,0.561996,-0.411723,84,-18.5,-66.6,-23.2,142.5905,-57.8678,57.4633,0,1010.2971,39.34158,30.445263,-84.300545,98.8026,NaN,,0,103.22581,,7-Jul,521,2018-04-16 21:16:53:532
-3.885908,8.08786,-0.031126,-5.754756,7.92877,0.432926,-1.286806,-2.42912,-0.250962,1.138653,-2.532647,-0.540005,84,-12.2,-69.6,-13.9,142.5905,-57.8678,57.4633,0,1010.4189,39.34158,30.445263,-84.300545,98.8026,NaN,,0,103.22581,,7-Jul,622,2018-04-16 21:16:53:633
-7.348029,4.759819,0.818842,-5.754756,7.92877,0.432926,-1.286806,-2.42912,-0.250962,1.138653,-2.532647,-0.540005,49,-12.2,-70.5,-13.4,164.5264,-53.9507,85.6978,0,1010.4189,60.90334,30.445263,-84.300545,98.8026,NaN,,0,103.22581,,7-Jul,721,2018-04-16 21:16:53:732
-7.479714,1.977671,-4.316877,-5.668749,7.997731,-0.267414,-1.810965,-6.020059,-4.049463,2.25898,-4.713436,-1.076345,49,-15.8,-73,-5.7,174.608,-54.6411,92.7008,0,1010.4189,60.90334,30.445263,-84.300545,98.8026,NaN,,0,103.22581,,7-Jul,821,2018-04-16 21:16:53:832
-4.446168,5.604997,-2.954535,-6.426224,7.404519,-0.216073,0.086185,-0.367745,3.410035,-0.191812,0.443488,0.207694,44,-14.8,-72.1,-3.7,176.5898,-49.03,91.9258,0,1010.5886,60.90334,30.445263,-84.300545,98.8026,NaN,,0,103.22581,,7-Jul,921,2018-04-16 21:16:53:932
-6.993676,4.793339,0.339987,-6.786449,6.965119,-1.265484,-3.329362,2.585644,-1.114425,0.541227,0.152716,-1.070236,44,-15,-73.1,-1.8,178.5544,-49.03,91.9258,0,1010.5886,57.73006,30.445263,-84.300545,98.8026,NaN,,0,103.22581,,7-Jul,1021,2018-04-16 21:16:54:032
-5.933013,5.593026,-1.060664,-7.02137,6.658964,-1.590096,1.023712,-2.136178,-0.56954,0.802677,0.540005,0.030543,44,-13.2,-73.2,0.5,183.5474,-42.7677,102.7603,0,1010.6887,57.73006,30.445263,-84.300545,98.8026,NaN,,0,103.22581,,7-Jul,1121,2018-04-16 21:16:54:132
-8.758257,5.008823,-6.88354,-7.215452,5.941458,-2.967514,-0.400736,0.180703,-3.504211,1.273043,0.657291,-0.305433,29,-9.6,-72.8,5.7,188.538,-37.2909,112.356,0,1010.6887,57.73006,30.445263,-84.300545,98.8026,NaN,,0,103.22581,,7-Jul,1222,2018-04-16 21:16:54:233
-7.568302,5.882734,-0.634483,-7.259984,5.650874,-3.395609,-0.308319,0.23186,2.761127,0.288328,-0.150273,0.156382,29,-7.1,-71.8,10.1,191.3213,-35.1858,115.0663,0,1010.8945,50.28958,30.445263,-84.300545,98.8026,NaN,,0,103.22581,,7-Jul,1322,2018-04-16 21:16:54:333
-6.177229,5.973716,-4.728692,-7.259984,5.650874,-3.395609,-0.308319,0.23186,2.761127,0.288328,-0.150273,0.156382,18,-7.1,-71.8,10.1,191.3213,-35.1858,115.0663,0,1010.8945,50.28958,30.445263,-84.300545,98.8026,NaN,,0,103.22581,,7-Jul,1422,2018-04-16 21:16:54:433
-6.541158,6.189201,-4.800521,-6.193992,6.020547,-4.642954,2.004011,-0.118659,-2.707469,0.144164,2.214997,0.98838,18,-7.5,-72.2,12.7,194.7427,-37.874,126.8549,0,1010.876,50.28958,30.445263,-84.300545,98.8026,NaN,,0,103.22581,,7-Jul,1522,2018-04-16 21:16:54:533
-2.260195,3.967313,-6.301731,-5.270699,5.940628,-5.753124,3.99934,-5.19122,4.108257,-0.477697,0.326202,0.569326,18,-10.4,-73.1,17,199.0599,-37.2848,137.5058,0,1010.876,61.31101,30.445263,-84.300545,98.8026,NaN,,0,103.22581,,7-Jul,1621,2018-04-16 21:16:54:632
-3.505218,3.469304,-4.008016,-6.130557,5.619951,-5.196394,1.861566,0.404045,0.520375,0.31765,-0.35308,-0.890641,20,-11.7,-73.7,17.7,200.648,-37.2848,137.5058,0,1011.061,61.31101,30.445263,-84.300545,98.8026,NaN,,0,103.22581,,7-Jul,1721,2018-04-16 21:16:54:732
-3.73028,1.448536,-8.564321,-5.945421,4.650943,-6.260261,2.215141,-3.202406,-2.304059,1.56015,-0.427606,-0.370184,20,-8.9,-71.2,19.6,201.0689,-34.965,130.2853,0,1011.061,61.31101,30.445263,-84.300545,98.8026,NaN,,0,103.22581,,7-Jul,1821,2018-04-16 21:16:54:832
-8.810931,3.064672,-6.41905,-5.945421,4.650943,-6.260261,2.215141,-3.202406,-2.304059,1.56015,-0.427606,-0.370184,5,-8.9,-71.2,19.6,201.0689,-34.965,130.2853,0,1010.8274,56.21343,30.445263,-84.300545,98.8026,NaN,,0,103.22581,,7-Jul,1922,2018-04-16 21:16:54:933
-1.352765,0.323227,-15.840522,-5.822881,3.749876,-6.942804,0.921801,-1.278984,-0.070027,1.7935,1.346347,0.824668,5,-7.8,-67.6,27.9,203.0853,-22.4813,140.0137,0,1010.8274,56.21343,30.445269,-84.30054,96.5379,NaN,,3.0435,77.41936,,7-Jul,2022,2018-04-16 21:16:55:033
-8.051946,-0.411815,0.433364,-5.5771,2.684006,-7.606705,-4.090981,15.28742,9.40E-05,-0.067195,0.222355,-0.522901,0,-11.8,-63.5,34.1,208.4206,-15.8841,143.7518,0,1010.4988,56.21343,30.445269,-84.30054,96.5379,NaN,,3.0435,77.41936,,7-Jul,2121,2018-04-16 21:16:55:132
-6.165257,0.67758,-6.689604,-5.89247,2.634014,-7.383112,1.496582,-2.921327,5.783737,-0.641408,0.753808,0.288328,0,-11,-62.8,34.7,208.8753,-15.5807,141.4066,0,1010.4988,68.56566,30.445269,-84.30054,96.5379,NaN,,3.0435,77.41936,,7-Jul,2222,2018-04-16 21:16:55:233
-7.031985,7.5276,-6.756643,-5.799458,2.217914,-7.590588,-1.232527,5.309686,0.833945,0.032987,0.466701,1.2144,0,-11.9,-61.3,36,209.8973,-13.0714,142.619,0,1010.2363,68.56566,30.445269,-84.30054,96.5379,NaN,,3.0435,77.41936,,7-Jul,2321,2018-04-16 21:16:55:332
-3.905062,7.927444,-6.895511,-4.18803,2.654298,-8.46078,5.796983,-8.070147,3.054508,0.271224,2.882062,0.350637,0,-17.7,-59.4,38.8,214.0364,-15.7038,153.6649,0,1010.2363,68.56566,30.445269,-84.30054,96.5379,NaN,,3.0435,77.41936,,7-Jul,2422,2018-04-16 21:16:55:433
-17.394407,17.578766,2.652857,-4.18803,2.654298,-8.46078,5.796983,-8.070147,3.054508,0.271224,2.882062,0.350637,0,-17.7,-59.4,38.8,214.0364,-15.7038,153.6649,0,1010,67.35828,30.445269,-84.30054,96.5379,NaN,,3.0435,77.41936,,7-Jul,2521,2018-04-16 21:16:55:532
-0.608146,4.606585,-12.51248,-2.435437,1.311074,-9.408484,1.422659,-0.755602,-0.223684,1.237613,-0.778242,0.739147,0,-29.4,-51.3,46.5,221.2579,-7.683,165.4872,0,1010,67.35828,30.445269,-84.30054,96.5379,NaN,,3.0435,77.41936,,7-Jul,2621,2018-04-16 21:16:55:632
-2.887495,-0.210696,-7.70717,-2.06768,1.451071,-9.475687,-0.819816,-1.661767,1.768517,0.93218,-0.983493,0.290772,0,-29.7,-50.7,46.9,221.4135,-8.5092,167.6905,0,1009.9451,67.35828,30.445269,-84.30054,96.5379,NaN,,3.0435,77.41936,,7-Jul,2721,2018-04-16 21:16:55:732
-2.45892,0.852362,-9.584282,-2.409608,0.972326,-9.456144,-0.003821,-0.543751,-0.326862,0.337198,-0.111177,0.372628,0,-29,-49.6,47.4,220.8332,-5.6902,165.7042,0,1009.9451,67.35828,30.445269,-84.30054,96.5379,NaN,,3.0435,77.41936,,7-Jul,2822,2018-04-16 21:16:55:833
-2.693559,0.289707,-9.115005,-2.41846,0.765394,-9.47286,-0.258339,-0.633709,0.266873,0.130725,-0.003665,0.395841,0,-27.9,-49,47.5,220.4419,-4.4764,165.6781,0,1009.7178,52.44913,30.445269,-84.30054,96.5379,NaN,,3.0435,77.41936,,7-Jul,2921,2018-04-16 21:16:55:932
-2.11175,0.323227,-9.395134,-2.381338,0.776585,-9.481329,0.269588,-0.453358,0.086195,-0.145386,0.069639,0.144164,0,-27.2,-48.7,48,219.7437,-4.4764,165.6781,0,1009.7178,52.44913,30.445276,-84.30052,93.3094,NaN,,3.0303,103.22581,,7-Jul,3021,2018-04-16 21:16:56:032
-2.164424,1.005595,-9.548368,-2.381338,0.776585,-9.481329,0.269588,-0.453358,0.086195,-0.145386,0.069639,0.144164,0,-27.2,-48.7,48,219.7437,-4.4764,165.6781,0,1009.7148,52.44913,30.445276,-84.30052,93.3094,NaN,,3.0303,103.22581,,7-Jul,3121,2018-04-16 21:16:56:132
-2.032739,1.537124,-9.454991,-2.312368,0.919066,-9.485682,0.147943,0.254129,0.116885,-0.109956,0.002443,0.116064,0,-27.3,-48.8,47.8,219.6663,-4.542,165.9012,0,1009.7148,38.92268,30.445276,-84.30052,93.3094,NaN,,3.0303,103.22581,,7-Jul,3221,2018-04-16 21:16:56:232
-1.834014,0.960104,-9.416683,-2.219389,1.049784,-9.494323,0.404529,0.281433,-0.00616,0.030543,0.0281,-0.001222,0,-27.7,-49.1,47.9,220.5793,-5.3776,166.3,0,1009.8979,38.92268,30.445276,-84.30052,93.3094,NaN,,3.0303,103.22581,,7-Jul,3321,2018-04-16 21:16:56:332
-2.020768,0.550683,-9.471751,-2.12736,1.016594,-9.518979,0.106592,-0.465911,0.047228,0.03543,-0.039095,0.012217,0,-28.6,-49.4,49,221.6329,-6.1452,166.8428,0,1009.8979,38.92268,30.445276,-84.30052,93.3094,NaN,,3.0303,103.22581,,7-Jul,3421,2018-04-16 21:16:56:432
-2.214704,0.761379,-9.471751,-2.139573,0.936171,-9.524466,0.140354,-0.03353,0.081446,-0.023213,-0.023213,0.023213,0,-29.1,-49.6,50,220.8587,-5.9502,167.4022,0,1010.0896,40.27405,30.445276,-84.30052,93.3094,NaN,,3.0303,103.22581,,7-Jul,3522,2018-04-16 21:16:56:533
-2.171607,0.936161,-9.385557,-2.171406,0.932002,-9.517676,0.047684,-0.055697,0.06508,-0.019548,-0.00733,-0.043982,0,-29.2,-49.6,50.4,220.6475,-5.478,167.3393,0,1010.0896,40.27405,30.445276,-84.30052,93.3094,NaN,,3.0303,103.22581,,7-Jul,3621,2018-04-16 21:16:56:632
-2.116539,0.837996,-9.404712,-2.171406,0.932002,-9.517676,0.047684,-0.055697,0.06508,-0.019548,-0.00733,-0.043982,0,-29.2,-49.6,50.4,220.6475,-5.478,167.3393,0,1010.2512,40.27405,30.445276,-84.30052,93.3094,NaN,,3.0303,103.22581,,7-Jul,3721,2018-04-16 21:16:56:732
-2.19555,0.933767,-9.378374,-2.194581,0.931157,-9.512457,-0.048854,-0.059641,0.038311,-0.009774,-0.006109,-0.00733,0,-29.2,-49.7,50.5,220.9462,-5.4535,167.1482,0,1010.2512,39.24407,30.445276,-84.30052,93.3094,NaN,,3.0303,103.22581,,7-Jul,3822,2018-04-16 21:16:56:833
-2.104567,1.089395,-9.469357,-2.202934,0.947216,-9.508928,-0.009376,-0.020632,0.12816,-0.03543,0.015882,-0.013439,0,-29.1,-49.6,50.7,221.0131,-5.4485,167.0088,0,1010.2866,39.24407,30.445276,-84.30052,93.3094,NaN,,3.0303,103.22581,,7-Jul,3921,2018-04-16 21:16:56:932
-2.104567,1.089395,-9.469357,-2.172032,0.987191,-9.511974,0.175207,0.09981,0.1336,-0.029322,0.040317,-0.019548,0,-29,-49.5,50.8,221.0131,-5.4485,167.0088,0,1010.2866,39.24407,30.445286,-84.30052,94.4352,NaN,,0,103.22581,,7-Jun,4021,2018-04-16 21:16:57:032
-1.951334,1.05827,-9.672871,-2.05469,0.996277,-9.537062,0.110538,0.428317,-0.099895,0.206472,0.174707,-0.112399,0,-29.2,-49.5,50.3,221.5276,-5.7775,167.1372,0,1010.311,39.24407,30.445286,-84.30052,94.4352,NaN,,0,103.22581,,7-Jun,4122,2018-04-16 21:16:57:133
-1.541913,0.193936,-9.12937,-1.880103,0.583895,-9.606984,0.33819,-0.389959,0.477614,0.502131,0.037874,-0.185703,0,-29.4,-49.2,50.1,221.2071,-5.8309,167.8419,0,1010.311,42.44174,30.445286,-84.30052,94.4352,NaN,,0,103.22581,,7-Jun,4222,2018-04-16 21:16:57:233
-2.051893,-0.215485,-9.761458,-1.880103,0.583895,-9.606984,0.33819,-0.389959,0.477614,0.502131,0.037874,-0.185703,0,-29.6,-48.6,50.3,220.1197,-3.4135,168.9271,0,1010.3313,42.44174,30.445286,-84.30052,94.4352,NaN,,0,103.22581,,7-Jun,4322,2018-04-16 21:16:57:333
-1.522759,-1.003201,-9.981731,-1.894564,0.142293,-9.620831,0.050973,-0.058493,0.393295,0.12706,-0.001222,-0.284663,0,-29.6,-48.6,50.3,220.1197,-3.4135,168.9271,0,1010.3313,42.44174,30.445286,-84.30052,94.4352,NaN,,0,103.22581,,7-Jun,4422,2018-04-16 21:16:57:433
-1.709512,0.488432,-9.25866,-2.098459,-0.146641,-9.578362,-0.690871,1.48983,0.736304,0.15516,-0.284663,-0.382402,0,-29.3,-47.7,50.7,218.9737,-0.8314,168.8597,0,1010.3403,44.73931,30.445286,-84.30052,94.4352,NaN,,0,103.22581,,7-Jun,4521,2018-04-16 21:16:57:532
-2.55948,0.095771,-9.069513,-2.219789,-0.498655,-9.539072,-0.339691,0.594426,0.469559,0.172264,0.03543,-0.142942,0,-28.4,-46.6,51.1,218.7664,0.8568,167.6427,0,1010.3403,44.73931,30.445286,-84.30052,94.4352,NaN,,0,103.22581,,7-Jun,4621,2018-04-16 21:16:57:632
-2.030345,-1.003201,-9.11261,-2.13978,-0.79421,-9.537345,-0.115627,-0.388562,0.441495,0.285885,0.025656,0.211359,0,-27.7,-45.9,51.5,218.7664,0.8568,167.6427,0,1010.3564,44.73931,30.445286,-84.30052,94.4352,NaN,,0,103.22581,,7-Jun,4722,2018-04-16 21:16:57:733
-1.845986,-1.376708,-9.210775,-2.129873,-0.903839,-9.52977,-0.142294,-0.642863,0.223224,-0.004887,0.018326,0.414167,0,-27.2,-45,51.7,217.8897,4.6453,167.3546,0,1010.3564,48.41498,30.445286,-84.30052,94.4352,NaN,,0,103.22581,,7-Jun,4822,2018-04-16 21:16:57:833
-2.312869,-1.668809,-9.378374,-2.129873,-0.903839,-9.52977,-0.142294,-0.642863,0.223224,-0.004887,0.018326,0.414167,0,-27.3,-44.3,52.1,218.1714,5.2882,167.4016,0,1010.3645,48.41498,30.445286,-84.30052,94.4352,NaN,,0,103.22581,,7-Jun,4921,2018-04-16 21:16:57:932
-1.788523,-1.094184,-9.407105,-2.262747,-0.586664,-9.523973,0.474224,-0.507519,0.116868,-0.671952,-0.147829,0.265116,0,-27.5,-44.4,51.9,219.4235,3.4297,166.6352,0,1010.3645,48.41498,30.445286,-84.30052,94.4352,NaN,,0,103.22581,,7-Jun,5022,2018-04-16 21:16:58:033
-1.913026,0.148445,-9.229929,-2.345613,-0.101425,-9.521444,-1.564238,2.34486,-1.413209,0.390954,0.0562,-0.343306,0,-27.4,-45.4,51.6,219.4235,3.4297,166.6352,0,1010.3728,53.64813,30.445293,-84.30051,96.3146,NaN,,0,38.70968,,7-May,5121,2018-04-16 21:16:58:132
-2.411035,-0.806871,-9.490906,-2.258157,-0.040427,-9.543015,-0.648492,0.263094,-0.409985,-0.064752,0.280998,0.078191,0,-27.3,-46.4,51,219.4642,0.2362,166.687,0,1010.3728,53.64813,30.445293,-84.30051,96.3146,NaN,,0,38.70968,,7-May,5222,2018-04-16 21:16:58:233
-1.642472,-0.174782,-9.402317,-2.207068,-0.074319,-9.554753,0.564596,-0.100463,0.152436,-0.100182,0.19059,0.045204,0,-27.3,-46.4,51,219.4642,0.2362,166.687,0,1010.3647,53.64813,30.445293,-84.30051,96.3146,NaN,,0,38.70968,,7-May,5322,2018-04-16 21:16:58:333
-2.037528,0.090982,-9.2419,-2.172586,-0.060918,-9.562758,0.003373,0.108803,0.380714,-0.013439,0.00733,-0.006109,0,-27.4,-46.9,50,219.4642,0.2362,166.687,0,1010.3647,53.64813,30.445293,-84.30051,96.3146,NaN,,0,38.70968,,7-May,5422,2018-04-16 21:16:58:433
-2.454131,-0.009577,-9.660899,-2.172586,-0.060918,-9.562758,0.003373,0.108803,0.380714,-0.013439,0.00733,-0.006109,0,-27.2,-47.3,48.7,218.1969,0.3559,167.2001,0,1010.3452,44.3972,30.445293,-84.30051,96.3146,NaN,,0,38.70968,,7-May,5521,2018-04-16 21:16:58:532
-2.221887,-0.177176,-9.42626,-2.146012,-0.058119,-9.568754,0.060598,-0.133423,0.233477,0.018326,0.032987,0.052534,0,-27.6,-47.4,49,218.8423,0.3396,167.3593,0,1010.3452,44.3972,30.445293,-84.30051,96.3146,NaN,,0,38.70968,,7-May,5622,2018-04-16 21:16:58:633
-2.171607,-0.038308,-9.490906,-2.155583,-0.07486,-9.566503,-0.016024,0.036551,0.075597,-0.002443,-0.047647,-0.032987,0,-28.1,-47.4,50.2,218.9881,0.4374,167.3019,0,1010.3403,44.3972,30.445293,-84.30051,96.3146,NaN,,0,38.70968,,7-May,5722,2018-04-16 21:16:58:733
-2.269772,-0.043097,-9.507666,-2.19236,-0.077531,-9.558103,-0.046287,0.017675,0.071986,-0.001222,-0.017104,-0.036652,0,-28.6,-47.3,51.2,219.9607,0.453,167.0814,0,1010.3403,39.80394,30.445293,-84.30051,96.3146,NaN,,0,38.70968,,7-May,5821,2018-04-16 21:16:58:832
-2.181184,-0.124502,-9.469357,-2.196301,-0.082606,-9.557156,-0.023191,-0.003587,0.085404,0.00733,0.00733,0.008552,0,-28.5,-47.4,51.2,219.2594,0.4826,167.0578,0,1010.3435,39.80394,30.445293,-84.30051,96.3146,NaN,,0,38.70968,,7-May,5921,2018-04-16 21:16:58:932
-2.200338,-0.122108,-9.44302,-2.200345,-0.088438,-9.556184,7.00E-06,-0.03367,0.113164,0,-0.00733,-0.008552,0,-28.5,-47.4,51.2,219.2594,0.4826,167.0578,0,1010.3435,39.80394,30.445301,-84.30051,97.4187,NaN,,0,38.70968,,7-May,6022,2018-04-16 21:16:59:033
-2.241041,-0.074223,-9.483723,-2.200345,-0.088438,-9.556184,7.00E-06,-0.03367,0.113164,0,-0.00733,-0.008552,0,-28.5,-47.5,51.2,219.2577,0.5167,167.0335,0,1010.3315,37.78502,30.445301,-84.30051,97.4187,NaN,,0,38.70968,,7-May,6122,2018-04-16 21:16:59:133
-2.231464,-0.086194,-9.483723,-2.207765,-0.091373,-9.554424,-0.03567,0.007573,0.080278,0.002443,0.003665,0.001222,0,-28.6,-47.4,51.1,219.9746,0.5339,166.9889,0,1010.3315,37.78502,30.445301,-84.30051,97.4187,NaN,,0,38.70968,,7-May,6221,2018-04-16 21:16:59:232
-2.288926,-0.10056,-9.481328,-2.213229,-0.091003,-9.553171,0.010497,0.004809,0.119728,0,-0.003665,-0.004887,0,-28.7,-47.5,51.1,219.9932,0.5317,166.9562,0,1010.3411,37.78502,30.445301,-84.30051,97.4187,NaN,,0,38.70968,,7-May,6321,2018-04-16 21:16:59:332
-2.152453,-0.095771,-9.47654,-2.218745,-0.092068,-9.551891,0.044744,0.037,0.0969,-0.003665,0.006109,0,0,-28.5,-47.6,50.6,218.7242,0.5379,166.9231,0,1010.3411,36.08688,30.445301,-84.30051,97.4187,NaN,,0,38.70968,,7-May,6422,2018-04-16 21:16:59:433
-2.169213,-0.122108,-9.47654,-2.218504,-0.092486,-9.551933,0.049291,-0.029622,0.075394,0.003665,-0.008552,-0.004887,0,-27.9,-47.6,49.6,218.5643,0.5404,166.9245,0,1010.3394,36.08688,30.445301,-84.30051,97.4187,NaN,,0,38.70968,,7-May,6521,2018-04-16 21:16:59:532
-2.233858,-0.086194,-9.469357,-2.225124,-0.0979,-9.550336,-0.011129,0.021283,0.069008,0.002443,-0.002443,0,0,-27.9,-47.6,49.6,218.5643,0.5404,166.9245,0,1010.3394,36.08688,30.445301,-84.30051,97.4187,NaN,,0,38.70968,,7-May,6621,2018-04-16 21:16:59:632
-2.233858,-0.10056,-9.462174,-2.225124,-0.0979,-9.550336,-0.011129,0.021283,0.069008,0.002443,-0.002443,0,0,-27.4,-47.7,48.7,217.6975,0.572,166.8847,0,1010.3481,36.08688,30.445301,-84.30051,97.4187,NaN,,0,38.70968,,7-May,6723,2018-04-16 21:16:59:734
-2.233858,-0.098165,-9.454991,-2.228133,-0.09761,-9.549634,0.001457,-5.55E-04,0.080277,0.002443,0.001222,0.003665,0,-27.4,-47.6,48.8,217.708,0.5703,166.8666,0,1010.3481,37.06317,30.445301,-84.30051,97.4187,NaN,,0,38.70968,,7-May,6821,2018-04-16 21:16:59:832
-2.221887,-0.079011,-9.490906,-2.230371,-0.098618,-9.549126,0.008484,0.019607,0.05822,-0.001222,0,0,0,-27.4,-47.5,49,217.708,0.5703,166.8666,0,1010.3591,37.06317,30.445301,-84.30051,97.4187,NaN,,0,38.70968,,7-May,6922,2018-04-16 21:16:59:933
-2.241041,-0.093377,-9.498088,-2.231537,-0.098565,-9.548854,0.028804,0.009977,0.079497,-0.002443,-0.004887,0.003665,0,-27.8,-47.5,49.8,219.1756,0.5759,166.8462,0,1010.3591,37.06317,30.445301,-84.30051,97.4187,NaN,,0,38.70968,,7-May,7022,2018-04-16 21:17:00:033
-2.221887,-0.105348,-9.438231,-2.232426,-0.097641,-9.54863,0.010539,-0.012495,0.064907,0.002443,0,-0.001222,0,-28.4,-47.5,50.4,219.1756,0.5759,166.8462,0,1010.3545,39.63921,30.445314,-84.3005,97.2851,NaN,,0,38.70968,,7-May,7121,2018-04-16 21:17:00:132
-2.214704,-0.102954,-9.450203,-2.233505,-0.09735,-9.548408,0.0188,-0.005603,0.098205,0.001222,0,-0.002443,0,-28.7,-47.5,51.1,220.0421,0.5688,166.8344,0,1010.3545,39.63921,30.445314,-84.3005,97.2851,NaN,,0,38.70968,,7-May,7222,2018-04-16 21:17:00:233
-2.214704,-0.098165,-9.457385,-2.233728,-0.097558,-9.548329,0.009446,-0.010184,0.095733,0.001222,0,-0.002443,0,-28.7,-47.4,50.9,220.0421,0.5688,166.8344,0,1010.3479,39.63921,30.445314,-84.3005,97.2851,NaN,,0,38.70968,,7-May,7322,2018-04-16 21:17:00:333
-2.219493,-0.0838,-9.45978,-2.233728,-0.097558,-9.548329,0.009446,-0.010184,0.095733,-0.001222,-0.001222,0.002443,0,-28.7,-47.4,50.9,220.0421,0.5688,166.8344,0,1010.3479,38.87486,30.445314,-84.3005,97.2851,NaN,,0,38.70968,,7-May,7422,2018-04-16 21:17:00:433
-2.219493,-0.110137,-9.438231,-2.234807,-0.098374,-9.548068,9.48E-04,-0.002186,0.090683,0.002443,0.001222,0.002443,0,-28.6,-47.4,50.8,220.0437,0.5748,166.8266,0,1010.3503,38.87486,30.445314,-84.3005,97.2851,NaN,,0,38.70968,,7-May,7521,2018-04-16 21:17:00:532
-2.207521,-0.102954,-9.445415,-2.235658,-0.099395,-9.547869,0.006588,-0.001164,0.071329,0.001222,0.002443,0,0,-28.5,-47.4,50.9,219.3461,0.5807,166.8215,0,1010.3503,38.87486,30.445314,-84.3005,97.2851,NaN,,0,38.70968,,7-May,7622,2018-04-16 21:17:00:633
-2.207521,-0.102954,-9.438231,-2.235631,-0.099497,-9.54788,0.004167,0.010909,0.068946,0.001222,0.002443,0,0,-28.4,-47.3,51.4,219.3458,0.5813,166.8216,0,1010.3591,36.79108,30.445314,-84.3005,97.2851,NaN,,0,38.70968,,7-May,7721,2018-04-16 21:17:00:732
-2.221887,-0.06704,-9.435837,-2.235628,-0.0995,-9.547867,0.016136,0.013306,0.090482,0.001222,0,0.002443,0,-28.5,-47.3,51.4,219.3458,0.5813,166.8216,0,1010.3591,36.79108,30.445314,-84.3005,97.2851,NaN,,0,38.70968,,7-May,7822,2018-04-16 21:17:00:833
-2.233858,-0.110137,-9.469357,-2.235908,-0.099454,-9.547802,0.021204,0.010866,0.090417,0.001222,0,0.003665,0,-28.4,-47.3,51.4,219.3468,0.5811,166.82,0,1010.3403,36.79108,30.445314,-84.3005,97.2851,NaN,,0,38.70968,,7-May,7922,2018-04-16 21:17:00:933
-2.226675,-0.114925,-9.464568,-2.235908,-0.099454,-9.547802,0.021204,0.010866,0.090417,0.004887,0,0.006109,0,-28.4,-47.3,51.4,219.3468,0.5811,166.82,0,1010.3403,36.79108,30.445314,-84.3005,97.2851,NaN,,0,38.70968,,7-May,8022,2018-04-16 21:17:01:033
-2.226675,-0.102954,-9.490906,-2.236645,-0.100431,-9.547619,3.93E-04,0.007055,0.056713,-0.001222,0.002443,0.002443,0,-28.4,-47.2,51.2,219.3467,0.5868,166.8155,0,1010.3323,38.36023,30.445314,-84.3005,97.2851,NaN,,0,38.70968,,7-May,8121,2018-04-16 21:17:01:132
-2.236253,-0.093377,-9.488511,-2.237815,-0.100826,-9.547352,0.001562,0.00745,0.058841,-0.002443,0.003665,0.003665,0,-28.4,-47.2,51.3,219.3496,0.5891,166.8085,0,1010.3323,38.36023,30.445314,-84.3005,97.2851,NaN,,0,38.70968,,7-May,8222,2018-04-16 21:17:01:233
-2.22907,-0.126897,-9.466963,-2.238456,-0.101,-9.547208,0.006992,-0.004348,0.092216,-0.002443,0.003665,0.003665,0,-28.5,-47.2,51.2,219.3496,0.5891,166.8085,0,1010.3201,38.36023,30.445314,-84.3005,97.2851,NaN,,0,38.70968,,7-May,8322,2018-04-16 21:17:01:333
-2.197944,-0.071828,-9.445415,-2.238541,-0.10124,-9.547194,0.007077,0.010258,0.092203,-0.004887,0,0.004887,0,-28.5,-47.2,51.1,219.3512,0.5901,166.8047,0,1010.3201,42.12503,30.445314,-84.3005,97.2851,NaN,,0,38.70968,,7-May,8422,2018-04-16 21:17:01:433
-2.21231,-0.098165,-9.457385,-2.238541,-0.10124,-9.547194,0.007077,0.010258,0.092203,0.001222,-0.001222,0.001222,0,-28.5,-47.2,51.1,219.3512,0.5901,166.8047,0,1010.322,42.12503,30.445314,-84.3005,97.2851,NaN,,0,38.70968,,7-May,8522,2018-04-16 21:17:01:533
-2.219493,-0.107742,-9.462174,-2.238212,-0.100906,-9.547235,0.023508,0.021895,0.087455,0.001222,-0.002443,-0.002443,0,-28.7,-47.3,51,220.0483,0.5915,166.8042,0,1010.322,42.12503,30.445314,-84.3005,97.2851,NaN,,0,38.70968,,7-May,8624,2018-04-16 21:17:01:635
-2.233858,-0.102954,-9.466963,-2.238082,-0.100703,-9.547297,-5.65E-04,0.002538,0.094701,0,-0.001222,-0.001222,0,-28.6,-47.4,51.1,220.0483,0.5915,166.8042,0,1010.3259,39.38818,30.445314,-84.3005,97.2851,NaN,,0,38.70968,,7-May,8721,2018-04-16 21:17:01:732
-2.21231,-0.107742,-9.438231,-2.239582,-0.100998,-9.546944,0.027273,-0.006745,0.108712,0.001222,0.002443,-0.002443,0,-28.4,-47.4,50.9,219.3508,0.5884,166.8069,0,1010.3259,39.38818,30.445314,-84.3005,97.2851,NaN,,0,38.70968,,7-May,8821,2018-04-16 21:17:01:832
-2.226675,-0.107742,-9.464568,-2.239888,-0.102225,-9.546851,0.013212,0.008849,0.087071,0.001222,0.002443,-0.002443,0,-28.2,-47.4,50.2,219.1956,0.5901,166.7979,0,1010.3098,39.38818,30.445314,-84.3005,97.2851,NaN,,0,38.70968,,7-May,8921,2018-04-16 21:17:01:932
-2.221887,-0.086194,-9.45978,-2.239748,-0.102105,-9.546874,0.02265,0.020699,0.087094,0,-0.002443,-0.002443,0,-27.6,-47.4,49.2,219.1956,0.5901,166.7979,0,1010.3098,41.94535,30.445314,-84.3005,97.2851,NaN,,0,38.70968,,7-May,9022,2018-04-16 21:17:02:033
-2.219493,-0.093377,-9.431048,-2.239748,-0.102105,-9.546874,0.02265,0.020699,0.087094,0.002443,0,0.001222,0,-27,-47.6,48.3,217.5714,0.5966,166.7969,0,1010.3059,41.94535,30.445314,-84.3005,97.2851,NaN,,0,38.70968,,9-Jul,9121,2018-04-16 21:17:02:132
-2.224281,-0.117319,-9.45978,-2.239881,-0.101621,-9.546855,0.006022,-0.015699,0.079892,0.001222,0.002443,-0.002443,0,-27,-47.7,47.9,217.5729,0.5937,166.7961,0,1010.3059,41.94535,30.445314,-84.3005,97.2851,NaN,,0,38.70968,,9-Jul,9221,2018-04-16 21:17:02:232
-2.219493,-0.112531,-9.457385,-2.240186,-0.102262,-9.546765,0.037453,-6.92E-04,0.094169,0.002443,0,0.001222,0,-27,-47.8,48,217.5729,0.5937,166.7961,0,1010.3113,41.94535,30.445314,-84.3005,97.2851,NaN,,0,38.70968,,9-Jul,9322,2018-04-16 21:17:02:333
-2.238647,-0.105348,-9.483723,-2.239494,-0.103409,-9.546914,-0.001547,-0.01391,0.075163,0.002443,0,0.001222,0,-27,-47.8,48,217.5729,0.5937,166.7961,0,1010.3113,36.54157,30.445314,-84.3005,97.2851,NaN,,0,38.70968,,9-Jul,9421,2018-04-16 21:17:02:432
-2.250618,-0.129291,-9.474146,-2.239108,-0.103823,-9.547011,0.019615,-0.018285,0.080049,0,0.001222,0,0,-27,-47.7,48.1,217.5675,0.6042,166.7984,0,1010.3042,36.54157,30.445314,-84.3005,97.2851,NaN,,0,38.70968,,9-Jul,9522,2018-04-16 21:17:02:533
-2.221887,-0.119714,-9.469357,-2.23975,-0.1054,-9.546839,0.017863,-0.014314,0.077482,0.003665,-0.004887,-0.001222,0,-26.9,-47.7,48.2,217.5653,0.6066,166.8007,0,1010.3042,36.54157,30.445314,-84.3005,97.2851,NaN,,0,38.70968,,9-Jul,9621,2018-04-16 21:17:02:632
-2.193156,-0.098165,-9.466963,-2.23975,-0.1054,-9.546839,0.017863,-0.014314,0.077482,-0.001222,0.002443,0.001222,0,-27.2,-47.8,48.1,217.5637,0.6158,166.7968,0,1010.3086,36.12712,30.445314,-84.3005,97.2851,NaN,,0,38.70968,,9-Jul,9722,2018-04-16 21:17:02:733
-2.197944,-0.126897,-9.47654,-2.240154,-0.10619,-9.546745,0.039816,0.017602,0.094149,0,0,-0.001222,0,-27.2,-47.7,48.3,217.5632,0.6204,166.7944,0,1010.3086,36.12712,30.445314,-84.3005,97.2851,NaN,,0,38.70968,,9-Jul,9821,2018-04-16 21:17:02:832
-2.226675,-0.119714,-9.454991,-2.238943,-0.105983,-9.547027,0.038604,0.005423,0.104007,0.001222,0,0.004887,0,-27.4,-47.7,48.4,217.5598,0.6192,166.8017,0,1010.303,36.12712,30.445314,-84.3005,97.2851,NaN,,0,38.70968,,9-Jul,9921,2018-04-16 21:17:02:932
-2.214704,-0.098165,-9.445415,-2.238628,-0.106015,-9.547113,0.023924,0.007849,0.101699,0.001222,0,0.004887,0,-27.3,-47.5,48.3,218.1378,0.6194,166.8036,0,1010.303,38.1082,30.445314,-84.3005,97.2851,NaN,,0,38.70968,,9-Jul,10021,2018-04-16 21:17:03:032
-2.214704,-0.129291,-9.464568,-2.238628,-0.106015,-9.547113,0.026319,-0.006516,0.094517,0.001222,0.001222,-0.002443,0,-27.4,-47.5,48.3,218.1378,0.6194,166.8036,0,1010.3125,38.1082,30.445314,-84.3005,97.2851,NaN,,0,38.70968,,9-Jul,10122,2018-04-16 21:17:03:133
-2.217098,-0.098165,-9.457385,-2.238628,-0.106015,-9.547113,0.03829,-0.016093,0.101699,0,0,0,0,-27.4,-47.5,48.3,218.1378,0.6194,166.8036,0,1010.3125,38.1082,30.445314,-84.3005,97.2851,NaN,,0,38.70968,,9-Jul,10222,2018-04-16 21:17:03:233
-2.224281,-0.117319,-9.466963,-2.238628,-0.106015,-9.547113,0.03829,-0.016093,0.101699,0.001222,-0.001222,0.002443,0,-27.9,-47.4,49.7,219.1799,0.6194,166.8036,0,1010.3201,36.40138,30.445314,-84.3005,97.2851,NaN,,0,38.70968,,9-Jul,10322,2018-04-16 21:17:03:333
-2.243435,-0.088588,-9.517242,-2.238554,-0.10621,-9.547137,0.019061,0.010439,0.1113,-0.001222,0,0.001222,0,-28.3,-47.3,50.6,219.1799,0.6194,166.8036,0,1010.3201,36.40138,30.445314,-84.3005,97.2851,NaN,,0,38.70968,,9-Jul,10422,2018-04-16 21:17:03:433
-2.205127,-0.095771,-9.44302,-2.239305,-0.105555,-9.546943,0.034178,0.00739,0.115894,0.001222,-0.001222,0,0,-28.5,-47.2,51.4,219.3423,0.6167,166.7995,0,1010.3228,36.40138,30.445314,-84.3005,97.2851,NaN,,0,38.70968,,9-Jul,10521,2018-04-16 21:17:03:532
-2.233858,-0.10056,-9.464568,-2.239353,-0.105453,-9.546956,0.005494,0.004893,0.082388,0.001222,-0.001222,0,0,-28.2,-47.1,51.7,219.5006,0.6167,166.7995,0,1010.3228,36.40138,30.445314,-84.3005,97.2851,NaN,,0,38.70968,,9-Jul,10622,2018-04-16 21:17:03:633
-2.197944,-0.136474,-9.452597,-2.23932,-0.105717,-9.546929,0.02701,-0.011603,0.096726,0.002443,0.003665,0.001222,0,-28.1,-46.8,51.6,219.5002,0.6177,166.7994,0,1010.3457,37.11589,30.445314,-84.3005,97.2851,NaN,,0,38.70968,,9-Jul,10722,2018-04-16 21:17:03:733
-2.217098,-0.119714,-9.452597,-2.238877,-0.1073,-9.547031,0.019385,-0.00523,0.096828,0,-0.002443,0.002443,0,-28.1,-46.7,51.5,219.5002,0.6177,166.7994,0,1010.3457,37.11589,30.445314,-84.3005,97.2851,NaN,,0,38.70968,,9-Jul,10821,2018-04-16 21:17:03:832
-2.221887,-0.10056,-9.483723,-2.238877,-0.1073,-9.547031,0.019385,-0.00523,0.096828,0,0.002443,0.002443,0,-28.1,-46.7,51.5,219.5002,0.6177,166.7994,0,1010.3435,37.11589,30.445314,-84.3005,97.2851,NaN,,0,38.70968,,9-Jul,10922,2018-04-16 21:17:03:933
-2.205127,-0.114925,-9.450203,-2.238877,-0.1073,-9.547031,0.024173,0.001952,0.094435,-0.001222,-0.001222,-0.001222,0,-28.2,-46.6,51.5,219.4946,0.6269,166.802,0,1010.3435,36.55849,30.445314,-84.3005,97.2851,NaN,,0,38.70968,,9-Jul,11022,2018-04-16 21:17:04:033
-2.21231,-0.117319,-9.440625,-2.238458,-0.107884,-9.547111,0.040514,0.00493,0.060994,-0.001222,-0.001222,-0.001222,0,-28.1,-46.6,51.4,219.4946,0.6269,166.802,0,1010.3433,36.55849,30.445314,-84.3005,97.2851,NaN,,0,38.70968,,10-Aug,11121,2018-04-16 21:17:04:132
-2.236253,-0.114925,-9.464568,-2.237615,-0.108511,-9.547293,0.006151,0.003163,0.070753,-0.003665,-0.004887,0.003665,0,-28.1,-46.5,51.4,219.9327,0.6303,166.8045,0,1010.3433,36.55849,30.445314,-84.3005,97.2851,NaN,,0,38.70968,,10-Aug,11221,2018-04-16 21:17:04:232
-2.214704,-0.107742,-9.481328,-2.237835,-0.108493,-9.547258,0.035102,-0.018404,0.092267,0,-0.002443,0,0,-28.2,-46.5,51.5,219.9327,0.6303,166.8045,0,1010.3462,37.45062,30.445314,-84.3005,97.2851,NaN,,0,38.70968,,10-Aug,11322,2018-04-16 21:17:04:333
-2.221887,-0.122108,-9.462174,-2.237949,-0.108471,-9.547222,0.032822,-0.001666,0.097019,0,-0.001222,0.001222,0,-28,-46.5,51.4,219.929,0.6339,166.8083,0,1010.3462,37.45062,30.445314,-84.3005,97.2851,NaN,,0,38.70968,,10-Aug,11422,2018-04-16 21:17:04:433
-2.219493,-0.110137,-9.45978,-2.237949,-0.108471,-9.547222,0.032822,-0.001666,0.097019,0,-0.001222,0.001222,0,-28,-46.5,51.2,219.929,0.6339,166.8083,0,1010.3506,37.45062,30.445314,-84.3005,97.2851,NaN,,0,38.70968,,10-Aug,11521,2018-04-16 21:17:04:532
-2.233858,-0.110137,-9.469357,-2.237857,-0.109259,-9.54724,0.023153,-0.005666,0.094644,0.001222,-0.002443,0.001222,0,-28.1,-46.5,51.2,219.9271,0.6384,166.8081,0,1010.3506,39.0811,30.445314,-84.3005,97.2851,NaN,,0,38.70968,,10-Aug,11623,2018-04-16 21:17:04:634
-2.219493,-0.105348,-9.452597,-2.237857,-0.109259,-9.54724,0.027941,0.003911,0.097037,0,0.001222,0.001222,0,-28.1,-46.5,51.1,219.9271,0.6384,166.8081,0,1010.3459,39.0811,30.445314,-84.3005,97.2851,NaN,,0,38.70968,,10-Aug,11721,2018-04-16 21:17:04:732
-2.243435,-0.095771,-9.481328,-2.237857,-0.109259,-9.54724,-0.005578,0.013488,0.065912,0,0.001222,0.002443,0,-28,-46.6,51.2,219.9271,0.6384,166.8081,0,1010.3459,39.0811,30.445314,-84.3005,97.2851,NaN,,0,38.70968,,10-Aug,11822,2018-04-16 21:17:04:833
-2.281744,-0.0838,-9.505271,-2.237543,-0.109455,-9.547325,0.00129,0.013684,0.070786,-0.002443,-0.002443,0,0,-28,-46.6,51.2,219.9271,0.6384,166.8081,0,1010.3362,39.0811,30.445314,-84.3005,97.2851,NaN,,0,38.70968,,10-Aug,11921,2018-04-16 21:17:04:932
-2.21231,-0.110137,-9.454991,-2.238176,-0.108765,-9.547194,0.025866,-0.001371,0.099386,0.003665,0.001222,-0.002443,0,-27.9,-46.7,51.4,219.3265,0.6395,166.81,0,1010.3362,37.23111,30.445314,-84.3005,97.2851,NaN,,0,38.70968,,10-Aug,12021,2018-04-16 21:17:05:032
-2.224281,-0.112531,-9.466963,-2.238176,-0.108765,-9.547194,0.025866,-0.001371,0.099386,0.003665,0.001222,-0.002443,0,-28,-46.8,51.5,219.4883,0.6355,166.8063,0,1010.3267,37.23111,30.445314,-84.3005,97.2851,NaN,,0,38.70968,,11-Aug,12122,2018-04-16 21:17:05:133
-2.224281,-0.134079,-9.474146,-2.238316,-0.10895,-9.547158,0.011641,0.003602,0.06583,0,0.001222,-0.001222,0,-28,-46.8,51.5,219.4883,0.6355,166.8063,0,1010.3267,37.23111,30.445314,-84.3005,97.2851,NaN,,0,38.70968,,11-Aug,12222,2018-04-16 21:17:05:233
-2.243435,-0.095771,-9.486116,-2.238644,-0.110288,-9.547039,0.019152,-0.004637,0.080076,0.001222,0,-0.002443,0,-28,-46.7,51.4,219.328,0.6444,166.8034,0,1010.3313,34.23863,30.445314,-84.3005,97.2851,NaN,,0,38.70968,,11-Aug,12322,2018-04-16 21:17:05:333
-2.200338,-0.129291,-9.464568,-2.23881,-0.110879,-9.547024,0.033684,0.003137,0.082456,0,0,-0.002443,0,-28,-46.8,51.3,219.328,0.6444,166.8034,0,1010.3313,34.23863,30.445314,-84.3005,97.2851,NaN,,0,38.70968,,11-Aug,12421,2018-04-16 21:17:05:432
-2.219493,-0.102954,-9.483723,-2.23881,-0.110879,-9.547024,0.019318,0.007925,0.063301,-0.001222,-0.001222,0,0,-28.1,-47,51.5,219.4849,0.6478,166.8024,0,1010.3352,34.23863,30.445314,-84.3005,97.2851,NaN,,0,38.70968,,11-Aug,12521,2018-04-16 21:17:05:532
-2.21231,-0.117319,-9.433443,-2.23881,-0.110879,-9.547024,-0.026173,0.039051,0.044147,-0.002443,0,-0.001222,0,-28.2,-47.1,51.6,219.4849,0.6478,166.8024,0,1010.3352,37.45778,30.445314,-84.3005,97.2851,NaN,,0,38.70968,,11-Aug,12622,2018-04-16 21:17:05:633
-2.21231,-0.10056,-9.454991,-2.23881,-0.110879,-9.547024,-0.026173,0.039051,0.044147,-0.002443,0,-0.001222,0,-28.2,-47.1,51.6,219.4849,0.6478,166.8024,0,1010.3354,37.45778,30.445314,-84.3005,97.2851,NaN,,0,38.70968,,11-Aug,12722,2018-04-16 21:17:05:733
-2.21231,-0.114925,-9.481328,-2.239372,-0.110733,-9.546876,0.031851,-0.016163,0.091885,-0.001222,0,-0.001222,0,-28.4,-47.1,51.6,219.4849,0.6478,166.8024,0,1010.3354,37.45778,30.445314,-84.3005,97.2851,NaN,,0,38.70968,,11-Aug,12822,2018-04-16 21:17:05:833
-2.217098,-0.107742,-9.47654,-2.239372,-0.110733,-9.546876,0.012697,0.012568,0.07273,0.001222,-0.001222,-0.001222,0,-28.4,-47.2,51.3,219.3292,0.647,166.799,0,1010.3328,38.02857,30.445314,-84.3005,97.2851,NaN,,0,38.70968,,11-Aug,12922,2018-04-16 21:17:05:933
-2.243435,-0.124502,-9.469357,-2.239316,-0.111278,-9.546872,-0.004119,-0.013225,0.077516,-0.001222,-0.001222,0,0,-28.3,-47.2,51.2,219.3292,0.647,166.799,0,1010.3328,38.02857,30.445314,-84.3005,97.2851,NaN,,0,38.70968,,11-Aug,13022,2018-04-16 21:17:06:033
-2.221887,-0.122108,-9.454991,-2.239696,-0.112604,-9.546767,0.017809,-0.009504,0.091776,-0.001222,0.002443,0,0,-28.2,-47.3,51,219.3292,0.647,166.799,0,1010.3401,38.02857,30.445314,-84.3005,97.2851,NaN,,0,38.70968,,11-Jul,13121,2018-04-16 21:17:06:132
-2.171607,-0.114925,-9.490906,-2.238939,-0.113797,-9.546953,0.045783,-0.005917,0.091962,0,0,0.002443,0,-28.3,-47.3,51.1,219.3255,0.6579,166.797,0,1010.3401,38.02857,30.445314,-84.3005,97.2851,NaN,,0,38.70968,,11-Jul,13222,2018-04-16 21:17:06:233
-2.221887,-0.074223,-9.493299,-2.238939,-0.113797,-9.546953,0.045783,-0.005917,0.091962,0,0,0.002443,0,-28.5,-47.3,51.3,219.3255,0.6579,166.797,0,1010.3396,37.00211,30.445314,-84.3005,97.2851,NaN,,0,38.70968,,11-Jul,13322,2018-04-16 21:17:06:333
-2.221887,-0.126897,-9.452597,-2.237268,-0.113576,-9.547329,0.010593,-0.015714,0.077972,0.002443,0.002443,0.002443,0,-28.5,-47.4,51.4,219.315,0.6636,166.8116,0,1010.3396,37.00211,30.445314,-84.3005,97.2851,NaN,,0,38.70968,,11-Jul,13422,2018-04-16 21:17:06:433
-2.202733,-0.114925,-9.452597,-2.237147,-0.114103,-9.547375,0.034414,-8.22E-04,0.094778,-0.004887,-0.003665,0.002443,0,-28.6,-47.6,51.6,219.578,0.6667,166.8124,0,1010.3401,37.00211,30.445314,-84.3005,97.2851,NaN,,0,38.70968,,11-Jul,13522,2018-04-16 21:17:06:533
-2.226675,-0.110137,-9.454991,-2.237147,-0.114103,-9.547375,0.029626,0.015938,0.073229,0,-0.001222,0,0,-28.6,-47.6,51.6,219.578,0.6667,166.8124,0,1010.3401,38.22231,30.445314,-84.3005,97.2851,NaN,,0,38.70968,,11-Jul,13622,2018-04-16 21:17:06:633
-2.205127,-0.114925,-9.471751,-2.237276,-0.113525,-9.547314,0.02736,0.005783,0.099505,0.002443,0.001222,0.001222,0,-28.5,-47.6,51.5,218.8865,0.6667,166.8124,0,1010.3462,38.22231,30.445314,-84.3005,97.2851,NaN,,0,38.70968,,11-Jul,13722,2018-04-16 21:17:06:733
-2.243435,-0.126897,-9.450203,-2.236824,-0.114379,-9.547431,5.71E-04,0.025791,0.044555,0.002443,-0.003665,0.003665,0,-28.6,-47.7,51.8,219.5799,0.6633,166.8115,0,1010.3462,38.22231,30.445314,-84.3005,97.2851,NaN,,0,38.70968,,11-Jul,13821,2018-04-16 21:17:06:832
-2.226675,-0.090982,-9.464568,-2.236824,-0.114379,-9.547431,5.71E-04,0.025791,0.044555,0.002443,-0.003665,0.003665,0,-28.7,-47.8,52,219.5762,0.6683,166.8143,0,1010.3464,36.87656,30.445314,-84.3005,97.2851,NaN,,0,38.70968,,11-Jul,13921,2018-04-16 21:17:06:932
-2.217098,-0.119714,-9.469357,-2.237418,-0.113972,-9.547297,0.020319,-0.005742,0.07794,-0.002443,0.003665,-0.001222,0,-28.6,-47.7,51.9,219.5792,0.6659,166.8107,0,1010.3464,36.87656,30.445314,-84.3005,97.2851,NaN,,0,38.70968,,11-Jul,14021,2018-04-16 21:17:07:032
-2.21231,-0.107742,-9.45978,-2.236531,-0.114068,-9.547493,0.036193,-0.022406,0.08053,0.002443,0.001222,-0.002443,0,-28.7,-47.7,51.8,219.576,0.6665,166.816,0,1010.3501,36.87656,30.445356,-84.300446,102.4144,NaN,,2.6834,25.806452,,11-Jun,14122,2018-04-16 21:17:07:133
-2.21231,-0.107742,-9.45978,-2.23537,-0.114926,-9.547757,0.030243,0.014366,0.085583,0.001222,-0.001222,0.006109,0,-28.7,-47.7,51.8,219.576,0.6665,166.816,0,1010.3501,37.51805,30.445356,-84.300446,102.4144,NaN,,2.6834,25.806452,,11-Jun,14221,2018-04-16 21:17:07:232
-2.221887,-0.126897,-9.474146,-2.235847,-0.114639,-9.547632,-0.021954,0.023657,0.071093,-0.002443,-0.004887,0.003665,0,-28.8,-47.7,51.5,219.5701,0.6715,166.823,0,1010.3577,37.51805,30.445356,-84.300446,102.4144,NaN,,2.6834,25.806452,,11-Jun,14322,2018-04-16 21:17:07:333
-2.217098,-0.095771,-9.474146,-2.237428,-0.113721,-9.5473,0.020329,0.01795,0.073154,-0.001222,-0.003665,0.001222,0,-28.8,-47.8,51.5,219.5724,0.6698,166.8201,0,1010.3577,37.51805,30.445356,-84.300446,102.4144,NaN,,2.6834,25.806452,,11-Jun,14421,2018-04-16 21:17:07:432
-2.24583,-0.093377,-9.483723,-2.237428,-0.113721,-9.5473,0.020329,0.01795,0.073154,-0.001222,-0.003665,0.001222,0,-28.9,-47.9,51.3,219.4259,0.6644,166.8106,0,1010.3625,37.51805,30.445356,-84.300446,102.4144,NaN,,2.6834,25.806452,,11-Jun,14521,2018-04-16 21:17:07:532
-2.205127,-0.119714,-9.450203,-2.238054,-0.112914,-9.547161,0.032928,-0.021166,0.07541,-0.001222,0.003665,0.002443,0,-28.8,-47.9,51.1,219.43,0.6597,166.8069,0,1010.3625,36.45805,30.445356,-84.300446,102.4144,NaN,,2.6834,25.806452,,11-Jun,14622,2018-04-16 21:17:07:633
-2.231464,-0.110137,-9.474146,-2.237451,-0.113863,-9.547279,0.029929,-0.032188,0.07074,0,0,0.003665,0,-28.6,-47.9,51.3,219.4257,0.6653,166.8105,0,1010.3491,36.45805,30.445356,-84.300446,102.4144,NaN,,2.6834,25.806452,,11-Jun,14722,2018-04-16 21:17:07:733
-2.238647,-0.088588,-9.486116,-2.237534,-0.114011,-9.54726,0.02283,0.015846,0.089875,0,0.001222,0.001222,0,-28.6,-48,51.3,219.4257,0.6653,166.8105,0,1010.3491,36.45805,30.445356,-84.300446,102.4144,NaN,,2.6834,25.806452,,11-Jun,14822,2018-04-16 21:17:07:833
-2.207521,-0.112531,-9.457385,-2.237587,-0.11393,-9.54726,0.030066,0.001399,0.089875,0,0,-0.001222,0,-28.6,-48,51.3,219.4257,0.6653,166.8105,0,1010.3455,37.59097,30.445356,-84.300446,102.4144,NaN,,2.6834,25.806452,,11-Jun,14922,2018-04-16 21:17:07:933
-2.238647,-0.107742,-9.478934,-2.237651,-0.113821,-9.547238,0.008582,0.01805,0.077882,0,0.002443,0.001222,0,-28.8,-48.1,51.3,219.4259,0.6657,166.8097,0,1010.3455,37.59097,30.445356,-84.300446,102.4144,NaN,,2.6834,25.806452,,11-Jun,15022,2018-04-16 21:17:08:033
-2.205127,-0.131685,-9.452597,-2.237651,-0.113821,-9.547238,0.008582,0.01805,0.077882,0,0.002443,0.001222,0,-28.9,-48.1,51.4,219.4264,0.665,166.8093,0,1010.344,37.59097,30.445358,-84.30042,102.6409,NaN,,3.048,25.806452,,12-Jul,15122,2018-04-16 21:17:08:133
-2.200338,-0.102954,-9.447808,-2.238132,-0.113497,-9.547139,0.025822,-0.008611,0.087359,0.002443,0.002443,-0.002443,0,-29.1,-48.2,51.7,219.5827,0.6631,166.8064,0,1010.344,36.53948,30.445358,-84.30042,102.6409,NaN,,3.048,25.806452,,12-Jul,15222,2018-04-16 21:17:08:233
-2.209916,-0.110137,-9.447808,-2.238346,-0.113618,-9.547082,0.02843,0.003482,0.099274,0.002443,0,-0.004887,0,-29.2,-48.3,51.7,219.5831,0.6638,166.8051,0,1010.3376,36.53948,30.445358,-84.30042,102.6409,NaN,,3.048,25.806452,,12-Jul,15322,2018-04-16 21:17:08:333
-2.22907,-0.119714,-9.47654,-2.238346,-0.113618,-9.547082,0.026036,-0.02525,0.080119,0.002443,0,-0.004887,0,-29.1,-48.3,51.7,219.5831,0.6638,166.8051,0,1010.3376,36.53948,30.445358,-84.30042,102.6409,NaN,,3.048,25.806452,,12-Jul,15422,2018-04-16 21:17:08:433
-2.19555,-0.122108,-9.466963,-2.2378,-0.115099,-9.54721,0.001547,0.028905,0.068275,0.001222,0.001222,0.002443,0,-29,-48.3,51.8,219.5831,0.6638,166.8051,0,1010.3389,36.5838,30.445358,-84.30042,102.6409,NaN,,3.048,25.806452,,12-Jul,15522,2018-04-16 21:17:08:533
-2.22907,-0.136474,-9.474146,-2.238284,-0.114831,-9.547086,0.042734,-0.009671,0.070546,0.001222,0,-0.001222,0,-29,-48.3,51.8,219.5831,0.6638,166.8051,0,1010.3389,36.5838,30.445358,-84.30042,102.6409,NaN,,3.048,25.806452,,12-Jul,15622,2018-04-16 21:17:08:633
-2.188367,-0.114925,-9.471751,-2.238284,-0.114831,-9.547086,0.042734,-0.009671,0.070546,0,0.001222,-0.001222,0,-29,-48.3,51.8,219.5798,0.6709,166.8055,0,1010.3425,36.5838,30.445358,-84.30042,102.6409,NaN,,3.048,25.806452,,12-Jul,15721,2018-04-16 21:17:08:732
-2.205127,-0.110137,-9.474146,-2.237625,-0.115089,-9.547256,0.032498,0.004953,0.07311,-0.001222,0,0.002443,0,-29.1,-48.4,51.7,219.5798,0.6709,166.8055,0,1010.3425,36.5838,30.445358,-84.30042,102.6409,NaN,,3.048,25.806452,,12-Jul,15821,2018-04-16 21:17:08:832
-2.226675,-0.102954,-9.47654,-2.237625,-0.115089,-9.547256,0.027709,-0.007019,0.097053,-0.001222,0,-0.003665,0,-29.2,-48.5,51.6,219.577,0.6724,166.8095,0,1010.3545,36.35518,30.445358,-84.30042,102.6409,NaN,,3.048,25.806452,,12-Jul,15922,2018-04-16 21:17:08:933
-2.190761,-0.10056,-9.45978,-2.23755,-0.115154,-9.547266,0.00848,0.031355,0.058755,-0.001222,0,-0.003665,0,-29.3,-48.5,51.6,219.577,0.6724,166.8095,0,1010.3545,36.35518,30.445358,-84.30042,102.6409,NaN,,3.048,25.806452,,12-Jul,16021,2018-04-16 21:17:09:032
-2.207521,-0.119714,-9.454991,-2.237341,-0.114267,-9.547294,0.01306,0.011313,0.077937,0,0.002443,-0.002443,0,-29.2,-48.5,51.9,219.5782,0.6676,166.8111,0,1010.3657,36.35518,30.445356,-84.30041,103.22,NaN,,3.7786,25.806452,,10-Jul,16121,2018-04-16 21:17:09:132
-2.250618,-0.086194,-9.490906,-2.237341,-0.114267,-9.547294,-0.013277,0.028073,0.056388,0,-0.001222,0.001222,0,-29.2,-48.5,51.7,219.5782,0.6676,166.8111,0,1010.3657,38.08467,30.445356,-84.30041,103.22,NaN,,3.7786,25.806452,,10-Jul,16221,2018-04-16 21:17:09:232
-2.217098,-0.124502,-9.474146,-2.237341,-0.114267,-9.547294,-0.013277,0.028073,0.056388,0,-0.001222,0.001222,0,-29.1,-48.6,51.6,219.5782,0.6676,166.8111,0,1010.3823,38.08467,30.445356,-84.30041,103.22,NaN,,3.7786,25.806452,,10-Jul,16321,2018-04-16 21:17:09:332
-2.21231,-0.114925,-9.478934,-2.237508,-0.114099,-9.54727,0.013227,0.006357,0.05397,-0.001222,0,0.001222,0,-29.1,-48.6,51.6,219.0062,0.6666,166.8101,0,1010.3823,38.08467,30.445356,-84.30041,103.22,NaN,,3.7786,25.806452,,10-Jul,16422,2018-04-16 21:17:09:433
-2.207521,-0.119714,-9.471751,-2.237508,-0.114099,-9.54727,0.034776,0.003963,0.077913,-0.001222,0.002443,0.001222,0,-29.1,-48.6,51.6,219.0062,0.6666,166.8101,0,1010.3884,37.55673,30.445356,-84.30041,103.22,NaN,,3.7786,25.806452,,10-Jul,16521,2018-04-16 21:17:09:532
-2.217098,-0.129291,-9.462174,-2.236712,-0.114393,-9.547455,-0.018695,0.030594,0.039789,0.003665,-0.001222,0.006109,0,-29.1,-48.6,51.6,219.0062,0.6666,166.8101,0,1010.3884,37.55673,30.445356,-84.30041,103.22,NaN,,3.7786,25.806452,,10-Jul,16622,2018-04-16 21:17:09:633
-2.231464,-0.131685,-9.47654,-2.236712,-0.114393,-9.547455,0.005248,-0.017292,0.070915,0,0.001222,0.003665,0,-28.7,-48.6,50.8,218.8495,0.6684,166.8149,0,1010.406,37.55673,30.445356,-84.30041,103.22,NaN,,3.7786,25.806452,,10-Jul,16722,2018-04-16 21:17:09:733
-2.205127,-0.134079,-9.483723,-2.236712,-0.114393,-9.547455,0.012431,0.001862,0.061338,0.001222,0.001222,0.002443,0,-28.2,-48.6,49.8,218.0007,0.6684,166.8149,0,1010.406,35.89928,30.445356,-84.30041,103.22,NaN,,3.7786,25.806452,,10-Jul,16821,2018-04-16 21:17:09:832
-2.207521,-0.10056,-9.469357,-2.236712,-0.114393,-9.547455,0.012431,0.001862,0.061338,0.001222,0.001222,0.002443,0,-28.1,-48.7,49.5,218.0007,0.6684,166.8149,0,1010.4248,35.89928,30.445356,-84.30041,103.22,NaN,,3.7786,25.806452,,10-Jul,16922,2018-04-16 21:17:09:933
-2.231464,-0.062251,-9.510059,-2.236712,-0.114393,-9.547455,-0.001935,-0.017292,0.082887,0.004887,0.002443,0.003665,0,-28.6,-48.6,50.5,218.8495,0.6684,166.8149,0,1010.4248,35.89928,30.445356,-84.30041,103.22,NaN,,3.7786,25.806452,,10-Jul,17021,2018-04-16 21:17:10:032
-2.221887,-0.119714,-9.47654,-2.237061,-0.113473,-9.547386,0.015174,-0.006241,0.070847,-0.001222,0.004887,0,0,-29.1,-48.7,51.6,219.0063,0.663,166.8129,0,1010.4199,35.89928,30.445345,-84.30039,103.8509,NaN,,4.2654,25.806452,131.5651,10-Jul,17122,2018-04-16 21:17:10:133
-2.231464,-0.146051,-9.483723,-2.237157,-0.113297,-9.547376,0.012876,-0.008811,0.058865,0.002443,0,0.002443,0,-29.1,-48.7,51.6,219.0063,0.663,166.8129,0,1010.4199,40.18489,30.445345,-84.30039,103.8509,NaN,,4.2654,25.806452,131.5651,10-Jul,17222,2018-04-16 21:17:10:233
-2.236253,-0.105348,-9.481328,-2.237326,-0.11378,-9.547337,0.001073,0.010826,0.066009,0,0.001222,0.001222,0,-29.3,-48.8,51.7,219.007,0.662,166.8123,0,1010.4087,40.18489,30.445345,-84.30039,103.8509,NaN,,4.2654,25.806452,131.5651,10-Jul,17322,2018-04-16 21:17:10:333
-2.197944,-0.122108,-9.474146,-2.237306,-0.114017,-9.547323,0.008236,-9.09E-04,0.070784,0.001222,-0.001222,0.002443,0,-29.3,-48.7,51.6,219.0064,0.6648,166.8113,0,1010.4087,40.18489,30.445345,-84.30039,103.8509,NaN,,4.2654,25.806452,131.5651,10-Jul,17421,2018-04-16 21:17:10:432
-2.209916,-0.114925,-9.47654,-2.237306,-0.114017,-9.547323,0.008236,-9.09E-04,0.070784,0.001222,-0.001222,0.002443,0,-29.3,-48.6,51.4,218.8523,0.6662,166.8114,0,1010.406,37.1023,30.445345,-84.30039,103.8509,NaN,,4.2654,25.806452,131.5651,10-Jul,17522,2018-04-16 21:17:10:533
-2.197944,-0.119714,-9.471751,-2.237306,-0.114017,-9.547323,-0.001341,0.006274,0.061207,0,0.003665,0.002443,0,-29.1,-48.6,51.3,218.8523,0.6662,166.8114,0,1010.406,37.1023,30.445345,-84.30039,103.8509,NaN,,4.2654,25.806452,131.5651,10-Jul,17621,2018-04-16 21:17:10:632
-2.248224,-0.107742,-9.531608,-2.237306,-0.114017,-9.547323,0.04415,0.015851,0.065995,0.001222,-0.001222,0.001222,0,-28.4,-48.6,50.1,218.0035,0.6662,166.8114,0,1010.3955,37.1023,30.445345,-84.30039,103.8509,NaN,,4.2654,25.806452,131.5651,10-Jul,17722,2018-04-16 21:17:10:733
-2.214704,-0.098165,-9.447808,-2.23773,-0.113714,-9.547215,0.020632,-0.005999,0.089829,-0.00733,0.001222,0.001222,0,-27.9,-48.6,48.9,217.8475,0.6644,166.8088,0,1010.3955,35.72499,30.445345,-84.30039,103.8509,NaN,,4.2654,25.806452,131.5651,10-Jul,17822,2018-04-16 21:17:10:833
-2.22907,-0.076617,-9.505271,-2.237792,-0.113613,-9.547205,0.008722,0.036996,0.041934,0.006109,-0.004887,0,0,-27.9,-48.6,48.9,217.8475,0.6644,166.8088,0,1010.3904,35.72499,30.445345,-84.30039,103.8509,NaN,,4.2654,25.806452,131.5651,10-Jul,17922,2018-04-16 21:17:10:933
-2.221887,-0.136474,-9.464568,-2.239085,-0.111488,-9.546938,0.021987,-0.029774,0.070398,0,0.003665,0.002443,0,-28.1,-48.6,48.9,217.8479,0.6638,166.8084,0,1010.3904,35.72499,30.445345,-84.30039,103.8509,NaN,,4.2654,25.806452,131.5651,10-Jul,18022,2018-04-16 21:17:11:033
-2.219493,-0.119714,-9.464568,-2.239085,-0.111488,-9.546938,0.021987,-0.029774,0.070398,0,0.003665,0.002443,0,-28.7,-48.6,50.1,218.7098,0.6514,166.8007,0,1010.363,34.77762,30.445332,-84.30038,103.8705,NaN,,4.5956,25.806452,114.2574,10-Jun,18122,2018-04-16 21:17:11:133
-2.209916,-0.10056,-9.478934,-2.239526,-0.112615,-9.546801,0.024822,0.007267,0.067866,0,0,0,0,-29.1,-48.6,51,218.7098,0.6514,166.8007,0,1010.363,34.77762,30.445332,-84.30038,103.8705,NaN,,4.5956,25.806452,114.2574,10-Jun,18222,2018-04-16 21:17:11:233
-2.200338,-0.134079,-9.478934,-2.238592,-0.112139,-9.547058,0.033465,0.002003,0.068124,-0.002443,0.001222,-0.001222,0,-28.9,-48.6,50.8,218.861,0.6552,166.8037,0,1010.3481,34.77762,30.445332,-84.30038,103.8705,NaN,,4.5956,25.806452,114.2574,10-Jun,18321,2018-04-16 21:17:11:332
-2.255407,-0.10056,-9.483723,-2.237676,-0.112754,-9.547233,-0.01773,0.012195,0.06351,0.002443,-0.003665,0.001222,0,-28.3,-48.6,49.7,218.861,0.6552,166.8037,0,1010.3481,34.77762,30.445332,-84.30038,103.8705,NaN,,4.5956,25.806452,114.2574,10-Jun,18422,2018-04-16 21:17:11:433
-2.238647,-0.102954,-9.531608,-2.237848,-0.112382,-9.547201,-0.019953,0.002245,0.015594,-0.001222,0,0,0,-28.1,-48.5,49.5,218.5765,0.6588,166.8091,0,1010.3572,36.61055,30.445332,-84.30038,103.8705,NaN,,4.5956,25.806452,114.2574,10-Jun,18522,2018-04-16 21:17:11:533
-2.209916,-0.114925,-9.45978,-2.238011,-0.112222,-9.547156,0.032884,-3.09E-04,0.065828,0,0,-0.004887,0,-28.5,-48.4,50.5,218.737,0.6557,166.8072,0,1010.3572,36.61055,30.445332,-84.30038,103.8705,NaN,,4.5956,25.806452,114.2574,10-Jun,18622,2018-04-16 21:17:11:633
-2.226675,-0.10056,-9.469357,-2.238011,-0.112222,-9.547156,0.032884,-3.09E-04,0.065828,0,0,-0.004887,0,-28.5,-48.4,50.5,218.737,0.6557,166.8072,0,1010.3604,36.61055,30.445332,-84.30038,103.8705,NaN,,4.5956,25.806452,114.2574,10-Jun,18721,2018-04-16 21:17:11:732
-2.214704,-0.112531,-9.469357,-2.238011,-0.112222,-9.547156,0.008941,0.006874,0.065828,-0.003665,0,-0.003665,0,-29,-48.3,51.1,219.4316,0.6557,166.8072,0,1010.3604,35.99114,30.445332,-84.30038,103.8705,NaN,,4.5956,25.806452,114.2574,10-Jun,18821,2018-04-16 21:17:11:832
-2.202733,-0.112531,-9.481328,-2.237823,-0.112501,-9.547215,0.025513,-0.007213,0.077858,0,0.001222,0.002443,0,-29,-48.3,51.1,219.4316,0.6557,166.8072,0,1010.3616,35.99114,30.445332,-84.30038,103.8705,NaN,,4.5956,25.806452,114.2574,10-Jun,18922,2018-04-16 21:17:11:933
-2.197944,-0.107742,-9.47654,-2.238114,-0.112456,-9.547144,0.04017,0.004713,0.070604,-0.002443,0.002443,0.001222,0,-29.2,-48.3,51.4,219.4302,0.6573,166.8083,0,1010.3616,35.99114,30.445332,-84.30038,103.8705,NaN,,4.5956,25.806452,114.2574,10-Jun,19022,2018-04-16 21:17:12:033
-2.226675,-0.093377,-9.469357,-2.236915,-0.112809,-9.547421,-0.006521,0.007461,0.04215,-0.001222,-0.001222,-0.002443,0,-29.3,-48.3,51.6,219.5853,0.657,166.8066,0,1010.3779,36.01409,30.445322,-84.30036,103.8795,NaN,,4.8122,25.806452,118.3711,10-Jun,19122,2018-04-16 21:17:12:133
-2.200338,-0.124502,-9.471751,-2.236915,-0.112809,-9.547421,-0.001732,2.78E-04,0.044545,0.001222,0.003665,0.001222,0,-29.3,-48.2,51.5,219.5853,0.657,166.8066,0,1010.3779,36.01409,30.445322,-84.30036,103.8795,NaN,,4.8122,25.806452,118.3711,10-Jun,19221,2018-04-16 21:17:12:232
-2.231464,-0.112531,-9.471751,-2.23711,-0.112712,-9.547359,0.00804,-0.007002,0.032511,-0.001222,0.002443,0.002443,0,-29.2,-48.2,51.2,219.4266,0.6591,166.8137,0,1010.3701,36.01409,30.445322,-84.30036,103.8795,NaN,,4.8122,25.806452,118.3711,10-Jun,19321,2018-04-16 21:17:12:332
-2.224281,-0.079011,-9.500483,-2.23711,-0.112712,-9.547359,0.00804,-0.007002,0.032511,-0.001222,0.002443,0.002443,0,-29.1,-48.2,51,219.4266,0.6591,166.8137,0,1010.3701,36.01065,30.445322,-84.30036,103.8795,NaN,,4.8122,25.806452,118.3711,10-Jun,19421,2018-04-16 21:17:12:432
-2.188367,-0.093377,-9.512454,-2.236865,-0.1123,-9.547435,-0.004176,0.033288,0.056529,-0.001222,0.002443,-0.002443,0,-29.1,-48.1,51.1,219.4277,0.6561,166.814,0,1010.366,36.01065,30.445322,-84.30036,103.8795,NaN,,4.8122,25.806452,118.3711,10-Jun,19522,2018-04-16 21:17:12:533
-2.188367,-0.093377,-9.512454,-2.236765,-0.110298,-9.547501,0.029244,0.009738,0.080538,0.001222,0.012217,-0.001222,0,-29.1,-48.1,51.1,219.4324,0.6444,166.8147,0,1010.366,36.01065,30.445322,-84.30036,103.8795,NaN,,4.8122,25.806452,118.3711,10-Jun,19622,2018-04-16 21:17:12:633
-2.214704,-0.112531,-9.512454,-2.236191,-0.110043,-9.547622,0.014304,-0.012065,0.075871,-0.002443,-0.002443,0,0,-29.1,-48,51.2,219.4324,0.6444,166.8147,0,1010.3577,36.01065,30.445322,-84.30036,103.8795,NaN,,4.8122,25.806452,118.3711,10-Jun,19721,2018-04-16 21:17:12:732
-2.238647,-0.088588,-9.514848,-2.236473,-0.110018,-9.547559,0.014586,0.038189,0.051865,0.002443,-0.002443,0.001222,0,-29.1,-48,51.2,219.4321,0.6428,166.8164,0,1010.3577,34.72006,30.445322,-84.30036,103.8795,NaN,,4.8122,25.806452,118.3711,10-Jun,19821,2018-04-16 21:17:12:832
-2.214704,-0.112531,-9.466963,-2.237527,-0.108381,-9.547326,0.022822,-0.00415,0.080363,0.001222,0.003665,0.002443,0,-29.1,-48,51.2,219.4321,0.6428,166.8164,0,1010.3611,34.72006,30.445322,-84.30036,103.8795,NaN,,4.8122,25.806452,118.3711,10-Jun,19922,2018-04-16 21:17:12:933
-2.219493,-0.124502,-9.474146,-2.237527,-0.108381,-9.547326,0.022822,-0.00415,0.080363,0.001222,0.003665,0.002443,0,-29.1,-48,51.2,219.4396,0.6332,166.8101,0,1010.3611,34.72006,30.445322,-84.30036,103.8795,NaN,,4.8122,25.806452,118.3711,10-Jun,20021,2018-04-16 21:17:13:032
-2.207521,-0.126897,-9.469357,-2.237527,-0.108381,-9.547326,0.020428,-0.016121,0.087546,0.004887,0.001222,0.003665,0,-28.9,-48,50.8,219.4396,0.6332,166.8101,0,1010.353,39.59943,30.445312,-84.30035,103.8772,NaN,,4.5184,25.806452,115.7681,10-May,20122,2018-04-16 21:17:13:133
-2.176396,-0.119714,-9.488511,-2.236913,-0.109453,-9.547458,-0.018494,-0.007867,0.035004,0.003665,0,0.001222,0,-28.1,-47.9,49.7,218.5821,0.6395,166.8138,0,1010.353,39.59943,30.445312,-84.30035,103.8772,NaN,,4.5184,25.806452,115.7681,10-May,20222,2018-04-16 21:17:13:233
-2.236253,-0.088588,-9.507666,-2.23721,-0.110012,-9.54738,0.032084,-0.012096,0.075629,0.002443,0.002443,0.002443,0,-27.5,-48,48.8,217.7082,0.6395,166.8138,0,1010.3381,39.59943,30.445312,-84.30035,103.8772,NaN,,4.5184,25.806452,115.7681,10-May,20322,2018-04-16 21:17:13:333
-2.190761,-0.117319,-9.45978,-2.23608,-0.110546,-9.547657,0.045319,-0.006773,0.087877,0.001222,-0.002443,-0.002443,0,-27.5,-48,48.8,217.7029,0.6459,166.8188,0,1010.3381,37.18105,30.445312,-84.30035,103.8772,NaN,,4.5184,25.806452,115.7681,10-May,20422,2018-04-16 21:17:13:433
-2.243435,-0.129291,-9.478934,-2.23608,-0.110546,-9.547657,0.045319,-0.006773,0.087877,0.001222,-0.002443,-0.002443,0,-27.5,-48,48.8,217.7029,0.6459,166.8188,0,1010.3516,37.18105,30.445312,-84.30035,103.8772,NaN,,4.5184,25.806452,115.7681,10-May,20522,2018-04-16 21:17:13:533
-2.22907,-0.112531,-9.488511,-2.235475,-0.11209,-9.547774,-0.015143,0.013925,0.040109,0.001222,0,0.006109,0,-27.8,-48.1,49.3,218.4124,0.6549,166.8224,0,1010.3516,37.18105,30.445312,-84.30035,103.8772,NaN,,4.5184,25.806452,115.7681,10-May,20622,2018-04-16 21:17:13:633
-2.197944,-0.119714,-9.478934,-2.236497,-0.112285,-9.54753,-0.023698,0.021302,0.035076,0.001222,0.001222,0.002443,0,-28.3,-48.1,50.3,218.4124,0.6549,166.8224,0,1010.3535,37.18105,30.445312,-84.30035,103.8772,NaN,,4.5184,25.806452,115.7681,10-May,20722,2018-04-16 21:17:13:733
-2.200338,-0.131685,-9.481328,-2.237739,-0.111086,-9.547249,0.046977,-0.013416,0.070709,0,0,0.003665,0,-28.9,-48.1,51.3,219.4266,0.656,166.8163,0,1010.3535,37.72727,30.445312,-84.30035,103.8772,NaN,,4.5184,25.806452,115.7681,10-May,20822,2018-04-16 21:17:13:833
-2.241041,-0.088588,-9.502876,-2.237,-0.111447,-9.547409,-0.004041,0.022859,0.044533,0,-0.002443,0.004887,0,-29.1,-48.1,51.6,219.5876,0.649,166.8088,0,1010.3645,37.72727,30.445312,-84.30035,103.8772,NaN,,4.5184,25.806452,115.7681,10-May,20922,2018-04-16 21:17:13:933
-2.200338,-0.131685,-9.481328,-2.237185,-0.111275,-9.547372,-0.001462,0.003533,0.008581,0.002443,-0.003665,0.00733,0,-29.1,-48,51.5,219.5843,0.6511,166.8132,0,1010.3645,37.72727,30.445312,-84.30035,103.8772,NaN,,4.5184,25.806452,115.7681,10-May,21022,2018-04-16 21:17:14:033
-2.241041,-0.112531,-9.488511,-2.23819,-0.111088,-9.54716,0.030668,0.00574,0.080197,0.002443,-0.003665,0.00733,0,-29,-48.1,51.5,219.5853,0.6501,166.8121,0,1010.3716,35.51994,30.445305,-84.30033,103.8357,NaN,,4.5105,38.70968,109.8929,9-Jun,21121,2018-04-16 21:17:14:132
-2.217098,-0.10056,-9.500483,-2.23819,-0.111088,-9.54716,0.030668,0.00574,0.080197,0.001222,0.002443,0.001222,0,-28.9,-48,51.5,219.5891,0.6491,166.8061,0,1010.3716,35.51994,30.445305,-84.30033,103.8357,NaN,,4.5105,38.70968,109.8929,9-Jun,21221,2018-04-16 21:17:14:232
-2.224281,-0.095771,-9.478934,-2.238227,-0.110742,-9.547141,0.01634,0.005394,0.072995,0.003665,-0.001222,0.001222,0,-28.9,-48.1,51.4,219.5891,0.6491,166.8061,0,1010.3779,35.51994,30.445305,-84.30033,103.8357,NaN,,4.5105,38.70968,109.8929,9-Jun,21322,2018-04-16 21:17:14:333
-2.231464,-0.10056,-9.502876,-2.237409,-0.111019,-9.547333,-0.013209,-0.008695,0.044456,0.003665,-0.001222,0.001222,0,-28.9,-48.1,51.4,219.5891,0.6491,166.8061,0,1010.3779,36.04508,30.445305,-84.30033,103.8357,NaN,,4.5105,38.70968,109.8929,9-Jun,21422,2018-04-16 21:17:14:433
-2.236253,-0.086194,-9.505271,-2.238259,-0.110836,-9.547129,-0.017148,0.034219,0.046646,0.001222,-0.001222,0.002443,0,-28.8,-48,51.5,219.5867,0.6486,166.8108,0,1010.3765,36.04508,30.445305,-84.30033,103.8357,NaN,,4.5105,38.70968,109.8929,9-Jun,21521,2018-04-16 21:17:14:532
-2.21231,-0.105348,-9.45978,-2.239316,-0.109881,-9.546911,0.027006,0.004533,0.087132,0.003665,0.001222,0.001222,0,-28.5,-48.1,50.9,218.7412,0.6476,166.8057,0,1010.3765,36.04508,30.445305,-84.30033,103.8357,NaN,,4.5105,38.70968,109.8929,9-Jun,21621,2018-04-16 21:17:14:632
-2.22907,-0.090982,-9.498088,-2.239316,-0.109881,-9.546911,0.003063,0.023687,0.051217,0.001222,0.001222,-0.001222,0,-28,-48,50,218.5888,0.642,166.7994,0,1010.3635,33.32099,30.445305,-84.30033,103.8357,NaN,,4.5105,38.70968,109.8929,9-Jun,21721,2018-04-16 21:17:14:732
-2.214704,-0.131685,-9.466963,-2.239316,-0.109881,-9.546911,0.003063,0.023687,0.051217,0.004887,0,0,0,-27.7,-48,49,218.4298,0.642,166.7994,0,1010.3635,33.32099,30.445305,-84.30033,103.8357,NaN,,4.5105,38.70968,109.8929,9-Jun,21821,2018-04-16 21:17:14:832
-2.200338,-0.119714,-9.481328,-2.239719,-0.109232,-9.54683,0.003467,-0.01527,0.012828,0.001222,-0.001222,-0.002443,0,-28.4,-48,50,218.5917,0.6382,166.797,0,1010.3596,33.32099,30.445305,-84.30033,103.8357,NaN,,4.5105,38.70968,109.8929,9-Jun,21921,2018-04-16 21:17:14:932
-2.226675,-0.102954,-9.486116,-2.239578,-0.109272,-9.546836,-0.001463,0.01829,0.046353,0.001222,-0.001222,-0.002443,0,-28.6,-47.9,50.4,219.2889,0.6384,166.7978,0,1010.3596,33.32099,30.445305,-84.30033,103.8357,NaN,,4.5105,38.70968,109.8929,9-Jun,22022,2018-04-16 21:17:15:033
-2.241041,-0.110137,-9.505271,-2.239498,-0.108564,-9.546868,8.51E-04,0.024764,0.036809,0.006109,0.001222,-0.001222,0,-28.6,-47.9,50.4,219.2889,0.6384,166.7978,0,1010.3569,35.06302,30.445305,-84.30033,103.8357,NaN,,4.5105,38.70968,109.8929,9-Jun,22121,2018-04-16 21:17:15:132
-2.243435,-0.119714,-9.502876,-2.239272,-0.108795,-9.54693,-0.004163,-0.010919,0.044054,0,0.003665,0.002443,0,-28.3,-47.9,49.9,219.2889,0.6384,166.7978,0,1010.3569,35.06302,30.445305,-84.30033,103.8357,NaN,,4.5105,38.70968,109.8929,9-Jun,22222,2018-04-16 21:17:15:233
-2.243435,-0.102954,-9.514848,-2.239272,-0.108795,-9.54693,-0.004163,-0.010919,0.044054,-0.001222,-0.002443,0,0,-27.9,-47.9,49.4,218.4322,0.6357,166.7997,0,1010.3611,35.06302,30.445305,-84.30033,103.8357,NaN,,4.5105,38.70968,109.8929,9-Jun,22321,2018-04-16 21:17:15:332
-2.207521,-0.117319,-9.481328,-2.24032,-0.108245,-9.546664,0.004067,0.02684,0.046182,0.001222,0.003665,-0.002443,0,-28.2,-47.9,50.1,218.5961,0.6324,166.7934,0,1010.3611,35.13675,30.445305,-84.30033,103.8357,NaN,,4.5105,38.70968,109.8929,9-Jun,22422,2018-04-16 21:17:15:433
-2.207521,-0.126897,-9.469357,-2.241152,-0.107288,-9.546495,0.028842,0.016305,0.062773,-0.002443,0,-0.001222,0,-28.6,-47.9,50.8,218.5961,0.6324,166.7934,0,1010.3552,35.13675,30.445305,-84.30033,103.8357,NaN,,4.5105,38.70968,109.8929,9-Jun,22522,2018-04-16 21:17:15:533
-2.22907,-0.117319,-9.507666,-2.240052,-0.108077,-9.546741,0.02056,-0.028397,0.072596,-0.002443,0,-0.001222,0,-28.8,-47.9,51.2,219.454,0.6268,166.7884,0,1010.3552,35.13675,30.445305,-84.30033,103.8357,NaN,,4.5105,38.70968,109.8929,9-Jun,22622,2018-04-16 21:17:15:633
-2.205127,-0.134079,-9.462174,-2.239478,-0.109265,-9.546891,0.034351,-0.024815,0.084717,0.001222,0.001222,0.002443,0,-28.8,-47.8,51.2,219.4436,0.6384,166.7985,0,1010.3621,34.49713,30.445305,-84.30033,103.8357,NaN,,4.5105,38.70968,109.8929,9-Jun,22722,2018-04-16 21:17:15:733
-2.209916,-0.119714,-9.462174,-2.239399,-0.109334,-9.546891,0.036666,-0.024745,0.082323,-0.002443,0.002443,0.002443,0,-28.4,-47.7,50.2,218.5908,0.6384,166.7985,0,1010.3621,34.49713,30.445305,-84.30033,103.8357,NaN,,4.5105,38.70968,109.8929,9-Jun,22821,2018-04-16 21:17:15:832
-2.224281,-0.081405,-9.486116,-2.239399,-0.109334,-9.546891,0.036666,-0.024745,0.082323,0.003665,-0.001222,0.001222,0,-28.4,-47.7,50.2,218.5908,0.6384,166.7985,0,1010.3669,34.49713,30.445305,-84.30033,103.8357,NaN,,4.5105,38.70968,109.8929,9-Jun,22922,2018-04-16 21:17:15:933
-2.233858,-0.102954,-9.495694,-2.238858,-0.109924,-9.546994,-0.004577,0.014153,0.039329,0.002443,0.002443,-0.001222,0,-27.9,-47.7,49,218.4314,0.6388,166.7989,0,1010.3669,34.37264,30.445305,-84.30033,103.8357,NaN,,4.5105,38.70968,109.8929,9-Jun,23022,2018-04-16 21:17:16:033
-2.236253,-0.110137,-9.493299,-2.239308,-0.109631,-9.546896,0.02221,-0.022054,0.079933,0.001222,0,0.002443,0,-28,-47.7,49.3,218.4314,0.6388,166.7989,0,1010.3711,34.37264,30.445305,-84.30033,103.8357,NaN,,4.5105,38.70968,109.8929,9-May,23121,2018-04-16 21:17:16:132
-2.255407,-0.122108,-9.495694,-2.239321,-0.110648,-9.546876,0.003068,-0.006671,0.058365,0.001222,0.003665,-0.002443,0,-28.4,-47.7,50.4,218.5894,0.6405,166.7994,0,1010.3711,34.37264,30.445305,-84.30033,103.8357,NaN,,4.5105,38.70968,109.8929,9-May,23221,2018-04-16 21:17:16:232
-2.197944,-0.119714,-9.47654,-2.240444,-0.10974,-9.546627,0.080808,0.006786,0.058116,0.001222,0.003665,-0.002443,0,-28.8,-47.7,51.2,218.5894,0.6405,166.7994,0,1010.3757,34.37264,30.445305,-84.30033,103.8357,NaN,,4.5105,38.70968,109.8929,9-May,23322,2018-04-16 21:17:16:333
-2.219493,-0.112531,-9.469357,-2.238944,-0.109934,-9.546994,0.043395,-2.03E-04,0.077638,0.001222,0.002443,0.004887,0,-28.7,-47.6,51.2,219.4456,0.6412,166.7926,0,1010.3757,33.6209,30.445305,-84.30033,103.8357,NaN,,4.5105,38.70968,109.8929,9-May,23421,2018-04-16 21:17:16:432
-2.224281,-0.102954,-9.490906,-2.238944,-0.109934,-9.546994,0.043395,-2.03E-04,0.077638,0.001222,0,0.001222,0,-28.6,-47.5,51.3,219.4456,0.6412,166.7926,0,1010.3721,33.6209,30.445305,-84.30033,103.8357,NaN,,4.5105,38.70968,109.8929,9-May,23522,2018-04-16 21:17:16:533
-2.221887,-0.086194,-9.490906,-2.237878,-0.110064,-9.547235,0.035145,-0.016832,0.08506,0,-0.001222,0.001222,0,-28.7,-47.5,51.5,220.1781,0.6431,166.808,0,1010.3721,33.6209,30.445305,-84.30033,103.8357,NaN,,4.5105,38.70968,109.8929,9-May,23622,2018-04-16 21:17:16:633
-2.221887,-0.126897,-9.462174,-2.237878,-0.110064,-9.547235,0.015991,-0.016832,0.08506,-0.001222,-0.001222,0.003665,0,-28.6,-47.6,51.2,219.4365,0.6431,166.808,0,1010.3713,30.83824,30.445305,-84.30033,103.8357,NaN,,4.5105,38.70968,109.8929,9-May,23722,2018-04-16 21:17:16:733
-2.214704,-0.136474,-9.462174,-2.239301,-0.109782,-9.54692,0.024596,-0.024297,0.07038,-0.001222,-0.001222,0.003665,0,-28.6,-47.6,51.2,219.4365,0.6431,166.808,0,1010.3713,30.83824,30.445305,-84.30033,103.8357,NaN,,4.5105,38.70968,109.8929,9-May,23822,2018-04-16 21:17:16:833
-2.217098,-0.122108,-9.466963,-2.239176,-0.110246,-9.546929,0.014895,0.019264,0.044053,0,0,0.001222,0,-28.7,-47.6,51,219.4418,0.6414,166.7995,0,1010.3555,30.83824,30.445305,-84.30033,103.8357,NaN,,4.5105,38.70968,109.8929,9-May,23922,2018-04-16 21:17:16:933
-2.202733,-0.126897,-9.466963,-2.238852,-0.109905,-9.546994,0.004993,0.01174,0.044118,0,0,0.002443,0,-28.6,-47.5,51.1,220.0272,0.6441,166.8002,0,1010.3555,33.73341,30.445305,-84.30033,103.8357,NaN,,4.5105,38.70968,109.8929,9-May,24021,2018-04-16 21:17:17:032
-2.236253,-0.114925,-9.471751,-2.239977,-0.109714,-9.546745,0.003724,-0.005211,0.074994,-0.002443,0,0.003665,0,-28.6,-47.5,51.2,220.0272,0.6441,166.8002,0,1010.353,33.73341,30.445305,-84.30033,103.8357,NaN,,4.5105,38.70968,109.8929,9-May,24122,2018-04-16 21:17:17:133
-2.236253,-0.114925,-9.471751,-2.239977,-0.109714,-9.546745,0.003724,-0.005211,0.074994,-0.001222,-0.002443,0,0,-28.7,-47.5,51.3,220.0312,0.641,166.7954,0,1010.353,33.73341,30.445305,-84.30033,103.8357,NaN,,4.5105,38.70968,109.8929,9-May,24221,2018-04-16 21:17:17:232
-2.241041,-0.131685,-9.498088,-2.239994,-0.109644,-9.546759,-0.003441,-4.93E-04,0.082191,-0.006109,0.004887,-0.003665,0,-28.8,-47.6,51.7,220.0312,0.641,166.7954,0,1010.3555,35.17545,30.445305,-84.30033,103.8357,NaN,,4.5105,38.70968,109.8929,9-May,24322,2018-04-16 21:17:17:333
-2.207521,-0.105348,-9.464568,-2.240097,-0.110135,-9.546696,0.027787,0.055067,0.065368,-0.006109,0.004887,-0.003665,0,-28.8,-47.7,51.7,219.5978,0.6435,166.7947,0,1010.3555,35.17545,30.445305,-84.30033,103.8357,NaN,,4.5105,38.70968,109.8929,9-May,24422,2018-04-16 21:17:17:433
-2.207521,-0.114925,-9.507666,-2.233318,-0.107775,-9.548333,0.061711,0.012004,0.045457,0.001222,0.004887,0.014661,0,-28.8,-47.8,51.8,219.5817,0.6297,166.8354,0,1010.3572,35.17545,30.445305,-84.30033,103.8357,NaN,,4.5105,38.70968,109.8929,9-May,24522,2018-04-16 21:17:17:533
-2.214704,-0.134079,-9.45978,-2.236713,-0.106202,-9.54755,0.022009,-0.027877,0.08777,-0.002443,-0.006109,-0.002443,0,-28.4,-47.7,50.9,218.7478,0.6205,166.8151,0,1010.3572,35.17545,30.445305,-84.30033,103.8357,NaN,,4.5105,38.70968,109.8929,9-May,24621,2018-04-16 21:17:17:632
-2.243435,-0.040703,-9.495694,-2.253324,-0.110413,-9.543599,-0.01166,0.081682,0.064665,0.003665,-0.019548,0.003665,0,-28.4,-47.7,50.9,218.7478,0.6205,166.8151,0,1010.3716,34.54358,30.445305,-84.30033,103.8357,NaN,,4.5105,38.70968,109.8929,9-May,24721,2018-04-16 21:17:17:732
-2.336812,-0.090982,-9.488511,-2.253324,-0.110413,-9.543599,-0.01166,0.081682,0.064665,-0.001222,0.009774,-0.010996,0,-28,-47.7,49.8,218.6327,0.6451,166.7153,0,1010.3716,34.54358,30.445305,-84.30033,103.8357,NaN,,4.5105,38.70968,109.8929,9-May,24821,2018-04-16 21:17:17:832
-2.264984,-0.167599,-9.478934,-2.252606,-0.108578,-9.543785,-0.021955,-0.039867,0.060062,-0.001222,0.008552,-0.008552,0,-27.7,-47.7,49,218.6327,0.6451,166.7153,0,1010.373,34.54358,30.445305,-84.30033,103.8357,NaN,,4.5105,38.70968,109.8929,9-May,24922,2018-04-16 21:17:17:933
-2.214704,-0.095771,-9.471751,-2.247073,-0.111323,-9.545048,0.010821,0.001187,0.044565,-0.003665,0.012217,0,0,-28,-47.8,49.8,218.6348,0.6344,166.7196,0,1010.373,34.63202,30.445305,-84.30033,103.8357,NaN,,4.5105,38.70968,109.8929,9-May,25022,2018-04-16 21:17:18:033
-2.159636,-0.0838,-9.500483,-2.235384,-0.106955,-9.547861,0.063777,-7.87E-04,0.061745,-0.003665,0.012217,0,0,-28.5,-47.8,51.1,218.7689,0.6504,166.7528,0,1010.3936,34.63202,30.445305,-84.30033,103.8357,NaN,,4.5105,38.70968,109.8929,9-May,25121,2018-04-16 21:17:18:132
-2.219493,-0.124502,-9.486116,-2.22985,-0.106824,-9.549152,0.010357,0.039785,0.043881,0.004887,-0.004887,0.003665,0,-28.8,-47.7,51.6,219.5905,0.6249,166.823,0,1010.3936,34.63202,30.445305,-84.30033,103.8357,NaN,,4.5105,38.70968,109.8929,9-May,25221,2018-04-16 21:17:18:232
-2.224281,-0.086194,-9.488511,-2.229892,-0.104951,-9.549154,-0.011149,-0.009974,0.005575,0,-0.001222,0.001222,0,-29.1,-47.8,51.4,219.4189,0.6241,166.8562,0,1010.4126,34.50285,30.445305,-84.30033,103.8357,NaN,,4.5105,38.70968,109.8929,9-May,25321,2018-04-16 21:17:18:332
-2.193156,-0.124502,-9.47654,-2.229892,-0.104951,-9.549154,-0.011149,-0.009974,0.005575,-0.001222,-0.004887,0.002443,0,-29.1,-47.8,51.4,219.4189,0.6241,166.8562,0,1010.4126,34.50285,30.445305,-84.30033,103.8357,NaN,,4.5105,38.70968,109.8929,9-May,25422,2018-04-16 21:17:18:433
-2.171607,-0.124502,-9.507666,-2.228948,-0.1056,-9.549353,0.057341,-0.018902,0.041687,0.003665,-0.010996,-0.008552,0,-29.1,-47.9,51.4,219.4237,0.6132,166.856,0,1010.4077,34.50285,30.445305,-84.30033,103.8357,NaN,,4.5105,38.70968,109.8929,9-May,25522,2018-04-16 21:17:18:533
-2.312869,-0.124502,-9.488511,-2.229646,-0.108244,-9.549195,-0.085617,5.02E-04,0.055896,0.003665,-0.010996,-0.008552,0,-28.9,-47.8,51.4,219.4191,0.617,166.8616,0,1010.4077,31.73607,30.445305,-84.30033,103.8357,NaN,,4.5105,38.70968,109.8929,9-May,25621,2018-04-16 21:17:18:632
-2.209916,-0.110137,-9.481328,-2.236229,-0.107385,-9.547633,0.045467,0.030768,0.06391,0,0.00733,-0.002443,0,-29,-47.8,51.2,219.4147,0.6324,166.8574,0,1010.4116,31.73607,30.445305,-84.30033,103.8357,NaN,,4.5105,38.70968,109.8929,9-May,25721,2018-04-16 21:17:18:732
-2.193156,-0.114925,-9.481328,-2.236434,-0.104759,-9.547642,0.043279,-0.010166,0.066314,-0.001222,0.004887,0.001222,0,-28.9,-47.8,51.2,219.4147,0.6324,166.8574,0,1010.4116,31.73607,30.445305,-84.30033,103.8357,NaN,,4.5105,38.70968,109.8929,9-May,25821,2018-04-16 21:17:18:832
-2.188367,-0.105348,-9.490906,-2.236434,-0.104759,-9.547642,0.043279,-0.010166,0.066314,-0.001222,-0.002443,0.002443,0,-29,-47.9,51.2,219.4452,0.6121,166.8168,0,1010.425,31.73607,30.445305,-84.30033,103.8357,NaN,,4.5105,38.70968,109.8929,9-May,25922,2018-04-16 21:17:18:933
-2.24583,-0.0838,-9.493299,-2.231962,-0.105205,-9.548667,0.024441,-0.004931,0.081704,0.002443,-0.006109,0.004887,0,-28.8,-48.1,51.5,219.5839,0.6147,166.8436,0,1010.425,33.70799,30.445305,-84.30033,103.8357,NaN,,4.5105,38.70968,109.8929,9-May,26022,2018-04-16 21:17:19:033
-2.226675,-0.074223,-9.500483,-2.23151,-0.104653,-9.54878,-0.019108,0.008882,0.043509,0.002443,-0.006109,0.004887,0,-28.8,-48,51.4,219.5839,0.6147,166.8436,0,1010.4275,33.70799,30.445305,-84.30033,103.8357,NaN,,4.5105,38.70968,109.8929,8-May,26122,2018-04-16 21:17:19:133
-2.269772,-0.131685,-9.505271,-2.234045,-0.102313,-9.548235,-0.054882,-0.060498,0.069301,0.002443,0.006109,0.001222,0,-28.7,-48,51.4,219.4436,0.5978,166.8311,0,1010.4275,33.70799,30.445305,-84.30033,103.8357,NaN,,4.5105,38.70968,109.8929,8-May,26222,2018-04-16 21:17:19:233
-2.200338,-0.102954,-9.490906,-2.236838,-0.105736,-9.547507,0.0365,0.002782,0.056602,-0.003665,0.004887,-0.003665,0,-28.7,-48,51.4,219.4436,0.5978,166.8311,0,1010.4199,33.46521,30.445305,-84.30033,103.8357,NaN,,4.5105,38.70968,109.8929,8-May,26322,2018-04-16 21:17:19:333
-2.16203,-0.059857,-9.524426,-2.233247,-0.104598,-9.548384,0.035303,0.044741,0.043113,0.002443,-0.001222,0,0,-28.7,-47.9,51.1,219.444,0.6178,166.8143,0,1010.4199,33.46521,30.445305,-84.30033,103.8357,NaN,,4.5105,38.70968,109.8929,8-May,26422,2018-04-16 21:17:19:433
-2.22907,-0.095771,-9.502876,-2.233247,-0.104598,-9.548384,0.035303,0.044741,0.043113,0.002443,-0.001222,0,0,-28.8,-48,51.4,219.4354,0.6111,166.8359,0,1010.4038,33.46521,30.445305,-84.30033,103.8357,NaN,,4.5105,38.70968,109.8929,8-May,26522,2018-04-16 21:17:19:533
-2.231464,-0.107742,-9.486116,-2.231211,-0.101713,-9.548898,-2.53E-04,-0.008423,0.072358,0.002443,-0.003665,0.003665,0,-28.8,-48,51.2,219.4354,0.6111,166.8359,0,1010.4038,33.96494,30.445305,-84.30033,103.8357,NaN,,4.5105,38.70968,109.8929,8-May,26622,2018-04-16 21:17:19:633
-2.219493,-0.122108,-9.483723,-2.232985,-0.101678,-9.548485,0.00631,-0.034795,0.074339,0.003665,0.002443,0.003665,0,-28.9,-47.9,51.3,219.4419,0.5941,166.8375,0,1010.3979,33.96494,30.445305,-84.30033,103.8357,NaN,,4.5105,38.70968,109.8929,8-May,26722,2018-04-16 21:17:19:733
-2.279349,-0.107742,-9.478934,-2.234568,-0.102244,-9.548082,7.10E-04,0.018444,0.052388,0,0.003665,-0.006109,0,-29,-48,51.4,219.4455,0.5974,166.828,0,1010.3979,33.96494,30.445305,-84.30033,103.8357,NaN,,4.5105,38.70968,109.8929,8-May,26822,2018-04-16 21:17:19:833
-2.202733,-0.112531,-9.464568,-2.234481,-0.101423,-9.548128,0.031749,-0.011108,0.08356,0.002443,0.001222,0.003665,0,-29,-48,51.6,219.4455,0.5974,166.828,0,1010.4026,32.65297,30.445305,-84.30033,103.8357,NaN,,4.5105,38.70968,109.8929,8-May,26922,2018-04-16 21:17:19:933
-2.190761,-0.134079,-9.488511,-2.232912,-0.101111,-9.548482,0.020602,0.00534,0.028845,0.002443,0.001222,0.004887,0,-29.1,-48.1,51.4,219.4473,0.5926,166.8285,0,1010.4026,32.65297,30.445305,-84.30033,103.8357,NaN,,4.5105,38.70968,109.8929,8-May,27022,2018-04-16 21:17:20:033
-2.233858,-0.150839,-9.462174,-2.232912,-0.101111,-9.548482,0.020602,0.00534,0.028845,0.002443,0.001222,0.004887,0,-29.1,-48.1,51.4,219.4473,0.5926,166.8285,0,1010.3904,32.65297,30.445305,-84.30033,103.8357,NaN,,4.5105,38.70968,109.8929,7-May,27121,2018-04-16 21:17:20:132
-2.236253,-0.076617,-9.495694,-2.232888,-0.102474,-9.548481,0.013395,-0.014846,0.071941,-0.001222,-0.002443,-0.002443,0,-29.2,-48.1,51.4,219.4473,0.5926,166.8285,0,1010.3904,32.65297,30.445305,-84.30033,103.8357,NaN,,4.5105,38.70968,109.8929,7-May,27222,2018-04-16 21:17:20:233
-2.248224,-0.076617,-9.514848,-2.234025,-0.102353,-9.548225,-0.014199,0.025736,0.033378,0,0.006109,0.006109,0,-29.2,-48.2,51.4,219.4396,0.5987,166.8381,0,1010.3767,34.54964,30.445305,-84.30033,103.8357,NaN,,4.5105,38.70968,109.8929,7-May,27322,2018-04-16 21:17:20:333
-2.21231,-0.119714,-9.483723,-2.234826,-0.102143,-9.548034,0.003362,-0.024753,0.061917,0,0.006109,0.006109,0,-29.1,-48.2,51.5,219.5979,0.598,166.8312,0,1010.3767,34.54964,30.445305,-84.30033,103.8357,NaN,,4.5105,38.70968,109.8929,7-May,27421,2018-04-16 21:17:20:432
-2.226675,-0.081405,-9.495694,-2.233395,-0.102673,-9.54835,-0.007646,0.040422,0.031108,0,-0.004887,0,0,-29.1,-48.3,51.5,219.6011,0.5968,166.8264,0,1010.3667,34.54964,30.445305,-84.30033,103.8357,NaN,,4.5105,38.70968,109.8929,7-May,27522,2018-04-16 21:17:20:533
-2.224281,-0.086194,-9.505271,-2.232862,-0.102007,-9.548499,0.008581,0.015813,0.043228,-0.001222,0,0.003665,0,-29.1,-48.3,51.5,219.5951,0.5999,166.835,0,1010.3667,36.33803,30.445305,-84.30033,103.8357,NaN,,4.5105,38.70968,109.8929,7-May,27622,2018-04-16 21:17:20:633
-2.233858,-0.124502,-9.510059,-2.232862,-0.102007,-9.548499,0.008581,0.015813,0.043228,0.001222,-0.006109,0.002443,0,-29.1,-48.3,51.5,219.5951,0.5999,166.835,0,1010.3757,36.33803,30.445305,-84.30033,103.8357,NaN,,4.5105,38.70968,109.8929,7-May,27721,2018-04-16 21:17:20:732
-2.279349,-0.081405,-9.505271,-2.233289,-0.101764,-9.548402,0.040133,-0.03471,0.074256,-0.002443,0.003665,0.002443,0,-29.1,-48.2,51.5,219.595,0.596,166.8382,0,1010.3757,36.33803,30.445305,-84.30033,103.8357,NaN,,4.5105,38.70968,109.8929,7-May,27821,2018-04-16 21:17:20:832
-2.221887,-0.134079,-9.486116,-2.23571,-0.102018,-9.547828,0.011428,-9.36E-04,0.056922,-0.001222,0.001222,0,0,-29.2,-48.2,51.7,219.597,0.5946,166.8357,0,1010.3799,35.46463,30.445305,-84.30033,103.8357,NaN,,4.5105,38.70968,109.8929,7-May,27921,2018-04-16 21:17:20:932
-2.209916,-0.043097,-9.45978,-2.237363,-0.102439,-9.547446,-0.020437,0.088074,0.0733,-0.001222,0.001222,0,0,-29.1,-48.3,51.5,219.6086,0.5985,166.8112,0,1010.3799,35.46463,30.445305,-84.30033,103.8357,NaN,,4.5105,38.70968,109.8929,7-May,28022,2018-04-16 21:17:21:033
-2.150059,-0.184359,-9.498088,-2.227138,-0.100315,-9.549848,0.101022,-0.112775,0.092463,0.002443,0.018326,0,0,-29.2,-48.5,51.7,219.5807,0.5861,166.8726,0,1010.3806,35.46463,30.445305,-84.30033,103.8357,NaN,,4.5105,38.70968,109.8929,8-Jun,28123,2018-04-16 21:17:21:134
-2.193156,-0.047885,-9.47654,-2.233436,-0.107515,-9.548323,0.040281,0.059629,0.071783,0.003665,-0.020769,0.001222,0,-29.4,-48.6,51.5,219.007,0.5861,166.8726,0,1010.3806,35.98232,30.445305,-84.30033,103.8357,NaN,,4.5105,38.70968,109.8929,8-Jun,28221,2018-04-16 21:17:21:232
-2.219493,-0.0838,-9.488511,-2.233436,-0.107515,-9.548323,0.040281,0.059629,0.071783,0.003665,-0.020769,0.001222,0,-29.3,-48.5,51.6,219.007,0.5861,166.8726,0,1010.3809,35.98232,30.445305,-84.30033,103.8357,NaN,,4.5105,38.70968,109.8929,8-Jun,28322,2018-04-16 21:17:21:333
-2.281744,-0.141262,-9.45978,-2.243408,-0.106552,-9.545991,0.004761,-0.022739,0.021565,0.004887,-0.003665,0.003665,0,-29.2,-48.5,51.7,219.6177,0.6225,166.7749,0,1010.3809,35.98232,30.445305,-84.30033,103.8357,NaN,,4.5105,38.70968,109.8929,8-Jun,28422,2018-04-16 21:17:21:433
-2.298504,-0.088588,-9.500483,-2.249117,-0.10901,-9.544595,-0.068541,0.010844,0.072844,-0.001222,0.003665,-0.010996,0,-29.2,-48.5,51.7,219.6177,0.6225,166.7749,0,1010.386,35.98232,30.445305,-84.30033,103.8357,NaN,,4.5105,38.70968,109.8929,8-Jun,28522,2018-04-16 21:17:21:533
-2.147664,-0.189148,-9.464568,-2.243907,-0.105817,-9.545892,0.096243,-0.083331,0.081324,-0.001222,0.020769,0.001222,0,-29.1,-48.5,51.4,219.4752,0.6369,166.7405,0,1010.386,38.20061,30.445305,-84.30033,103.8357,NaN,,4.5105,38.70968,109.8929,8-Jun,28622,2018-04-16 21:17:21:633
-2.075836,-0.064645,-9.507666,-2.233298,-0.110196,-9.548302,0.11676,0.03358,0.07655,0.006109,-0.024435,0,0,-29,-48.6,51.1,219.4752,0.6369,166.7405,0,1010.3977,38.20061,30.445305,-84.30033,103.8357,NaN,,4.5105,38.70968,109.8929,8-Jun,28722,2018-04-16 21:17:21:733
-2.185973,-0.062251,-9.500483,-2.253052,-0.112968,-9.543647,0.158062,-0.011534,0.047953,0.00733,-0.046426,-0.010996,0,-29.1,-48.6,51.1,218.8489,0.6438,166.8355,0,1010.3977,38.20061,30.445305,-84.30033,103.8357,NaN,,4.5105,38.70968,109.8929,8-Jun,28822,2018-04-16 21:17:21:833
-2.415823,-0.112531,-9.591465,-2.253052,-0.112968,-9.543647,0.158062,-0.011534,0.047953,0.00733,-0.046426,-0.010996,0,-29.1,-48.5,51.2,219.4778,0.66,166.7169,0,1010.3877,36.56505,30.445305,-84.30033,103.8357,NaN,,4.5105,38.70968,109.8929,8-Jun,28921,2018-04-16 21:17:21:932
-2.473286,-0.093377,-9.493299,-2.300341,-0.115866,-9.532325,-0.15379,0.046432,0.027054,0.003665,0.017104,0.058643,0,-29,-48.4,51.2,219.6213,0.677,166.4328,0,1010.3877,36.56505,30.445305,-84.30033,103.8357,NaN,,4.5105,38.70968,109.8929,8-Jun,29022,2018-04-16 21:17:22:033
-2.336812,-0.114925,-9.450203,-2.289826,-0.099975,-9.535029,-0.046986,-0.014951,0.084826,-0.003665,0.043982,0.067195,0,-29,-48.5,51.1,219.6275,0.5841,166.4962,0,1010.3716,36.56505,30.445305,-84.30033,103.8357,NaN,,4.5105,38.70968,109.8929,8-May,29122,2018-04-16 21:17:22:133
-2.142876,-0.179571,-9.457385,-2.253426,-0.086387,-9.543812,0.115339,-0.016567,0.052906,-0.008552,0.026878,0.030543,0,-29,-48.5,51.1,219.6275,0.5841,166.4962,0,1010.3716,36.36241,30.445305,-84.30033,103.8357,NaN,,4.5105,38.70968,109.8929,8-May,29222,2018-04-16 21:17:22:233
-2.157241,-0.10056,-9.498088,-2.234975,-0.082295,-9.548178,0.034637,0.034409,0.054878,-0.00733,-0.004887,0.014661,0,-29.1,-48.6,51.2,218.9713,0.5047,166.715,0,1010.3513,36.36241,30.445305,-84.30033,103.8357,NaN,,4.5105,38.70968,109.8929,8-May,29321,2018-04-16 21:17:22:332
-2.166818,-0.079011,-9.462174,-2.231881,-0.076669,-9.54898,-0.001978,0.028784,0.031737,0.004887,0.001222,0.008552,0,-29.4,-48.7,51.4,218.9227,0.4808,166.8258,0,1010.3513,36.36241,30.445305,-84.30033,103.8357,NaN,,4.5105,38.70968,109.8929,8-May,29421,2018-04-16 21:17:22:432
-2.193156,-0.059857,-9.431048,-2.231881,-0.076669,-9.54898,-0.001978,0.028784,0.031737,0.004887,0.001222,0.008552,0,-29.5,-48.8,51.4,218.9266,0.4479,166.8445,0,1010.3579,39.18846,30.445305,-84.30033,103.8357,NaN,,4.5105,38.70968,109.8929,8-May,29521,2018-04-16 21:17:22:532
-2.21231,-0.114925,-9.510059,-2.224809,-0.078682,-9.550589,0.00771,0.016431,0.014192,0.00733,0.009774,-0.017104,0,-29.6,-48.7,51.4,219.5785,0.4597,166.8868,0,1010.3579,39.18846,30.445305,-84.30033,103.8357,NaN,,4.5105,38.70968,109.8929,8-May,29622,2018-04-16 21:17:22:633
-2.310475,0.021548,-9.562734,-2.220085,-0.079402,-9.551687,-0.09039,0.100951,-0.011046,0.003665,0.012217,-0.012217,0,-29.5,-48.8,51.4,218.8823,0.4639,166.9152,0,1010.3423,39.18846,30.445305,-84.30033,103.8357,NaN,,4.5105,38.70968,109.8929,8-May,29722,2018-04-16 21:17:22:733
-2.018374,-0.146051,-9.488511,-2.209763,-0.094564,-9.55393,0.143504,-0.04191,0.118093,-0.001222,-0.002443,-0.009774,0,-29.5,-48.8,51.4,218.8823,0.4639,166.9152,0,1010.3423,39.18846,30.445305,-84.30033,103.8357,NaN,,4.5105,38.70968,109.8929,8-May,29822,2018-04-16 21:17:22:833
-2.241041,-0.225062,-9.505271,-2.227305,-0.083446,-9.549958,0.003024,0.035561,0.082995,-0.03543,-0.026878,0.020769,0,-29.5,-48.7,51.5,218.9649,0.5525,166.9769,0,1010.3401,38.65993,30.445305,-84.30033,103.8357,NaN,,4.5105,38.70968,109.8929,8-May,29922,2018-04-16 21:17:22:933
-2.286532,-0.081405,-9.466963,-2.237587,-0.07033,-9.547691,-0.048945,-0.011075,0.080729,0.004887,-0.00733,0.051313,0,-29.5,-48.8,51.7,218.9649,0.5525,166.9769,0,1010.3401,38.65993,30.445305,-84.30033,103.8357,NaN,,4.5105,38.70968,109.8929,8-May,30021,2018-04-16 21:17:23:032
-2.255407,-0.043097,-9.498088,-2.237587,-0.07033,-9.547691,-0.048945,-0.011075,0.080729,0.004887,-0.00733,0.051313,0,-29.5,-48.8,51.8,219.1164,0.4109,166.8103,0,1010.3391,38.65993,30.445305,-84.30033,103.8357,NaN,,4.5105,38.70968,109.8929,0 / 7,30121,2018-04-16 21:17:23:132
-2.298504,-0.007183,-9.505271,-2.255052,-0.063136,-9.543609,-0.033875,0.01525,0.105377,0.002443,0.015882,0.015882,0,-29.4,-48.9,51.8,219.1164,0.4109,166.8103,0,1010.3391,40.10394,30.445305,-84.30033,103.8357,NaN,,4.5105,38.70968,109.8929,0 / 7,30222,2018-04-16 21:17:23:233
-2.24583,-0.035914,-9.512454,-2.24982,-0.062706,-9.544874,0.001596,4.55E-04,0.04918,0.003665,0.015882,-0.010996,0,-29.4,-48.9,51.7,219.1753,0.3664,166.7369,0,1010.3376,40.10394,30.445305,-84.30033,103.8357,NaN,,4.5105,38.70968,109.8929,0 / 7,30322,2018-04-16 21:17:23:333
-2.238647,-0.203513,-9.383162,-2.235792,-0.06819,-9.548095,0.023483,-0.075467,0.124229,0.003665,0.015882,-0.010996,0,-29.2,-48.8,51.6,219.116,0.3984,166.821,0,1010.3376,40.10394,30.445305,-84.30033,103.8357,NaN,,4.5105,38.70968,109.8929,0 / 7,30422,2018-04-16 21:17:23:433
-2.394275,-0.162811,-9.596253,-2.243168,-0.102033,-9.546086,0.011704,0.020628,0.007296,0.023213,-0.004887,-0.008552,0,-29.3,-48.8,51.7,219.116,0.3984,166.821,0,1010.3552,40.01309,30.445305,-84.30033,103.8357,NaN,,4.5105,38.70968,109.8929,0 / 7,30522,2018-04-16 21:17:23:533
-1.896266,0.052674,-9.538791,-2.231777,-0.091636,-9.548858,0.017073,0.275995,0.01725,-0.021991,-0.03543,-0.064752,0,-29.3,-48.8,51.6,219.0548,0.5961,166.7764,0,1010.3552,40.01309,30.445305,-84.30033,103.8357,NaN,,4.5105,38.70968,109.8929,0 / 7,30621,2018-04-16 21:17:23:632
-2.231464,-0.069434,-9.502876,-2.231777,-0.091636,-9.548858,0.017073,0.275995,0.01725,0.017104,0.009774,0.00733,0,-29.3,-48.8,51.6,219.0548,0.5961,166.7764,0,1010.3552,40.01309,30.445305,-84.30033,103.8357,NaN,,4.5105,38.70968,109.8929,0 / 7,30722,2018-04-16 21:17:23:733
-2.253013,-0.24661,-9.550762,-2.225077,-0.088285,-9.550438,0.051076,-0.155931,0.033195,0.014661,-0.054978,0.079412,0,-29.3,-48.8,51.6,219.0439,0.5354,166.8449,0,1010.3552,39.37567,30.445305,-84.30033,103.8357,NaN,,4.5105,38.70968,109.8929,0 / 7,30822,2018-04-16 21:17:23:833
-2.44216,-0.189148,-9.510059,-2.275073,-0.098969,-9.538566,-0.167087,-0.090179,0.028506,0.013439,-0.034208,0.095295,0,-29.1,-48.8,51.4,218.8763,0.5158,166.8851,0,1010.3701,39.37567,30.445305,-84.30033,103.8357,NaN,,4.5105,38.70968,109.8929,0 / 7,30922,2018-04-16 21:17:23:933
-2.39188,0.019154,-9.308941,-2.324253,-0.095159,-9.526737,-0.151427,0.099947,0.184277,0.013439,-0.034208,0.095295,0,-29,-48.9,51.3,218.8763,0.5158,166.8851,0,1010.3701,39.37567,30.445305,-84.30033,103.8357,NaN,,4.5105,38.70968,109.8929,0 / 7,31022,2018-04-16 21:17:24:033
-2.573845,-0.043097,-9.557945,-2.338103,-0.08234,-9.523447,0.125793,0.08234,0.063667,-0.004887,0.029322,-0.019548,0,-29,-48.8,51.1,219.1738,0.556,166.2893,0,1010.3704,39.37567,30.445305,-84.30033,103.8357,NaN,,4.5105,38.70968,109.8929,0 / 8,31122,2018-04-16 21:17:24:133
-2.21231,-0.316044,-9.397529,-2.295495,-0.088431,-9.533792,0.083185,-0.227614,0.136263,0.009774,0.050091,0.0281,0,-29,-49,51.3,219.2486,0.4811,166.2061,0,1010.3704,47.54222,30.445305,-84.30033,103.8357,NaN,,4.5105,38.70968,109.8929,0 / 8,31221,2018-04-16 21:17:24:232
-2.267378,-0.198725,-9.526819,-2.295495,-0.088431,-9.533792,0.083185,-0.227614,0.136263,0.009774,0.050091,0.0281,0,-29,-49.1,51.3,219.2486,0.4811,166.2061,0,1010.3694,47.54222,30.445305,-84.30033,103.8357,NaN,,4.5105,38.70968,109.8929,0 / 8,31322,2018-04-16 21:17:24:333
-2.513988,-0.011971,-9.500483,-2.267811,-0.116165,-9.540102,-0.02351,-0.070588,0.013283,-0.006109,-0.018326,-0.012217,0,-29.1,-49.3,51.6,219.0993,0.6787,166.6282,0,1010.3694,47.54222,30.445305,-84.30033,103.8357,NaN,,4.5105,38.70968,109.8929,0 / 8,31422,2018-04-16 21:17:24:433
-2.329629,-0.162811,-9.557945,-2.307772,-0.118134,-9.530467,-0.148754,0.168414,0.080264,-0.026878,0.003665,-0.053756,0,-29.3,-49.3,51.6,219.2232,0.6902,166.388,0,1010.3708,38.8582,30.445305,-84.30033,103.8357,NaN,,4.5105,38.70968,109.8929,0 / 8,31522,2018-04-16 21:17:24:533
-1.697541,-0.069434,-9.613013,-2.266904,-0.089592,-9.540609,0.308387,0.084804,0.131109,-0.014661,0.059865,-0.036652,0,-29.3,-49.3,51.6,219.2232,0.6902,166.388,0,1010.3708,38.8582,30.445305,-84.30033,103.8357,NaN,,4.5105,38.70968,109.8929,0 / 8,31622,2018-04-16 21:17:24:633
-1.924997,-0.059857,-9.419077,-2.140725,-0.083477,-9.569756,0.215728,0.02362,0.150679,0.013439,-0.078191,0.0281,0,-29.4,-49.3,51.8,219.1628,0.5235,166.634,0,1010.3831,38.8582,30.445305,-84.30033,103.8357,NaN,,4.5105,38.70968,109.8929,0 / 8,31721,2018-04-16 21:17:24:732
-2.336812,-0.023943,-9.565128,-2.186871,-0.09894,-9.559157,-0.039805,0.142036,-0.032308,0.013439,-0.068417,0.046426,0,-29.5,-49.3,51.5,218.7666,0.4877,167.3907,0,1010.3831,39.67343,30.445305,-84.30033,103.8357,NaN,,4.5105,38.70968,109.8929,0 / 8,31822,2018-04-16 21:17:24:833
-2.537931,0.035914,-9.466963,-2.186871,-0.09894,-9.559157,-0.039805,0.142036,-0.032308,0.013439,-0.068417,0.046426,0,-29.5,-49.2,51.4,218.7277,0.5781,167.1141,0,1010.3867,39.67343,30.445305,-84.30033,103.8357,NaN,,4.5105,38.70968,109.8929,0 / 8,31921,2018-04-16 21:17:24:932
-2.44216,-0.129291,-9.500483,-2.286699,-0.089093,-9.535869,-0.442774,-0.035409,0.006655,0.004887,-0.001222,-0.012217,0,-29.1,-49.1,51.5,219.2279,0.5205,166.5151,0,1010.3867,39.67343,30.445305,-84.30033,103.8357,NaN,,4.5105,38.70968,109.8929,0 / 7,32022,2018-04-16 21:17:25:033
-2.238647,-0.110137,-9.481328,-2.323765,-0.083265,-9.526958,0.061175,-0.012506,0.040842,-0.012217,0.006109,-0.010996,0,-28.9,-49.1,51.4,219.2279,0.5205,166.5151,0,1010.384,41.68706,30.445305,-84.30033,103.8357,NaN,,4.5105,38.70968,109.8929,0 / 7,32122,2018-04-16 21:17:25:133
-2.375121,-0.102954,-9.450203,-2.317136,-0.082032,-9.5286,-0.057985,-0.020922,0.078397,0.006109,0.002443,0.004887,0,-28.9,-49.1,51.4,219.2279,0.5205,166.5151,0,1010.384,41.68706,30.445305,-84.30033,103.8357,NaN,,4.5105,38.70968,109.8929,0 / 7,32222,2018-04-16 21:17:25:233
-2.303292,-0.153234,-9.478934,-2.30691,-0.085168,-9.531066,0.041927,-0.012997,0.0234,-0.008552,0.009774,-0.001222,0,-28.8,-49.2,51.3,219.1835,0.4793,166.3323,0,1010.3774,41.68706,30.445305,-84.30033,103.8357,NaN,,4.5105,38.70968,109.8929,0 / 7,32322,2018-04-16 21:17:25:333
-2.260195,-0.062251,-9.474146,-2.303195,-0.08044,-9.531985,0.02624,0.044526,0.067417,-0.00733,0.010996,0.003665,0,-28.8,-49.2,51.4,219.1436,0.4976,166.3937,0,1010.3774,41.68706,30.445305,-84.30033,103.8357,NaN,,4.5105,38.70968,109.8929,0 / 7,32422,2018-04-16 21:17:25:433
-2.241041,-0.076617,-9.452597,-2.303195,-0.08044,-9.531985,0.02624,0.044526,0.067417,-0.00733,0.010996,0.003665,0,-29,-49.3,51.7,219.3025,0.47,166.4161,0,1010.3777,40.20117,30.445305,-84.30033,103.8357,NaN,,4.5105,38.70968,109.8929,0 / 7,32522,2018-04-16 21:17:25:533
-2.250618,-0.06704,-9.474146,-2.290462,-0.077981,-9.535081,0.044632,0.006153,0.039387,0.004887,0.004887,0.004887,0,-29.1,-49.3,51.6,219.2678,0.4556,166.4927,0,1010.3777,40.20117,30.445305,-84.30033,103.8357,NaN,,4.5105,38.70968,109.8929,0 / 7,32622,2018-04-16 21:17:25:633
-2.214704,-0.265764,-9.387952,-2.284491,-0.086415,-9.536436,0.074575,-0.143435,-0.052634,0.015882,0,0.004887,0,-29.1,-49.2,51.4,219.0698,0.5049,166.5284,0,1010.3708,40.20117,30.445305,-84.30033,103.8357,NaN,,4.5105,38.70968,109.8929,0 / 7,32722,2018-04-16 21:17:25:733
-2.485257,0.043097,-9.498088,-2.300019,-0.116641,-9.532386,-0.015245,0.085516,0.022326,0.003665,-0.032987,-0.018326,0,-29.1,-49.2,51.4,219.0698,0.5049,166.5284,0,1010.3708,38.23436,30.445305,-84.30033,103.8357,NaN,,4.5105,38.70968,109.8929,0 / 7,32822,2018-04-16 21:17:25:833
-2.504411,-0.057463,-9.555551,-2.339118,-0.117018,-9.522845,-0.124591,0.06195,0.012786,0.014661,0.004887,0.010996,0,-29.2,-49.3,51.5,219.202,0.6815,166.4347,0,1010.3816,38.23436,30.445305,-84.30033,103.8357,NaN,,4.5105,38.70968,109.8929,0 / 7,32921,2018-04-16 21:17:25:932
-2.315264,-0.160416,-9.435837,-2.326581,-0.107439,-9.526018,0.111877,-0.182268,0.042295,0.002443,0.041539,-0.014661,0,-29.1,-49.2,51.1,219.1674,0.6837,166.1995,0,1010.3816,38.23436,30.445305,-84.30033,103.8357,NaN,,4.5105,38.70968,109.8929,0 / 7,33022,2018-04-16 21:17:26:033
-2.238647,-0.191542,-9.500483,-2.326581,-0.107439,-9.526018,0.111877,-0.182268,0.042295,0.002443,0.041539,-0.014661,0,-28.9,-49.1,51.2,219.1674,0.6837,166.1995,0,1010.3728,42.15056,30.445305,-84.30033,103.8357,NaN,,4.5105,38.70968,109.8929,8-May,33122,2018-04-16 21:17:26:133
-2.420612,-0.079011,-9.471751,-2.30859,-0.12255,-9.530251,-0.056953,0.043539,0.118357,-0.010996,-0.020769,-0.021991,0,-28.8,-49.1,51.4,219.0579,0.716,166.3831,0,1010.3728,42.15056,30.445305,-84.30033,103.8357,NaN,,4.5105,38.70968,109.8929,8-May,33222,2018-04-16 21:17:26:233
-2.123722,-0.055068,-9.366403,-2.308835,-0.112416,-9.530287,0.070189,0.110022,0.087267,-0.020769,0.037874,-0.019548,0,-28.8,-49,51.4,219.0579,0.716,166.3831,0,1010.3567,42.15056,30.445305,-84.30033,103.8357,NaN,,4.5105,38.70968,109.8929,8-May,33322,2018-04-16 21:17:26:333
-2.037528,-0.102954,-9.522031,-2.262762,-0.104488,-9.541442,0.170166,0.047025,0.076874,0.001222,-0.0281,-0.026878,0,-29.1,-49.2,51.7,219.1121,0.6105,166.6587,0,1010.3567,47.48657,30.445305,-84.30033,103.8357,NaN,,4.5105,38.70968,109.8929,8-May,33422,2018-04-16 21:17:26:433
-2.152453,-0.057463,-9.522031,-2.264605,-0.106435,-9.54098,-0.005167,-0.080318,-0.062456,0.017104,-0.017104,0.06353,0,-29.3,-49.3,51.7,219.1132,0.6219,166.6476,0,1010.3525,47.48657,30.445305,-84.30033,103.8357,NaN,,4.5105,38.70968,109.8929,8-May,33522,2018-04-16 21:17:26:533
-2.322446,-0.191542,-9.433443,-2.288682,-0.112569,-9.535172,0.026092,-0.023905,0.101728,0.032987,-0.043982,0.086743,0,-29.1,-49.3,52,219.1132,0.6219,166.6476,0,1010.3525,47.48657,30.445305,-84.30033,103.8357,NaN,,4.5105,38.70968,109.8929,8-May,33622,2018-04-16 21:17:26:633
-2.494834,-0.134079,-9.481328,-2.288682,-0.112569,-9.535172,0.026092,-0.023905,0.101728,0.032987,-0.043982,0.086743,0,-29.1,-49.3,52,219.1132,0.6219,166.6476,0,1010.3535,47.48657,30.445305,-84.30033,103.8357,NaN,,4.5105,38.70968,109.8929,8-May,33721,2018-04-16 21:17:26:732
-2.631308,-0.155628,-9.519637,-2.349151,-0.136592,-9.520116,-0.277368,-0.059738,0.033999,0.006109,-0.019548,-0.048869,0,-28.9,-49.2,51.8,219.1756,0.6577,166.5029,0,1010.3535,43.12532,30.445305,-84.30033,103.8357,NaN,,4.5105,38.70968,109.8929,8-May,33821,2018-04-16 21:17:26:832
-2.494834,-0.241822,-9.42626,-2.394051,-0.145819,-9.50877,0.258358,-0.103186,0.142367,-0.003665,0.081856,0.03543,0,-28.7,-49.3,51.7,219.1756,0.6577,166.5029,0,1010.3628,43.12532,30.445305,-84.30033,103.8357,NaN,,4.5105,38.70968,109.8929,8-May,33922,2018-04-16 21:17:26:933
-2.068653,-0.114925,-9.47654,-2.341422,-0.15391,-9.52176,0.186575,0.113208,0.069163,-0.015882,-0.00733,-0.080634,0,-28.8,-49.2,51.6,219.4305,0.852,165.8682,0,1010.3628,43.12532,30.445305,-84.30033,103.8357,NaN,,4.5105,38.70968,109.8929,8-May,34022,2018-04-16 21:17:27:033
-2.322446,-0.045491,-9.560339,-2.31699,-0.145561,-9.527867,-0.17545,-0.010066,-0.0205,0.008552,0.045204,0.034208,0,-28.9,-49.2,51.4,219.4305,0.852,165.8682,0,1010.3357,41.73206,30.445305,-84.30033,103.8357,NaN,,4.5105,38.70968,109.8929,8-Apr,34122,2018-04-16 21:17:27:133
-2.130905,-0.112531,-9.529214,-2.282533,-0.14308,-9.536222,0.151629,0.03055,0.007008,0.008552,-0.017104,-0.013439,0,-29.1,-49.1,51.3,219.0289,0.8505,166.3321,0,1010.3357,41.73206,30.445305,-84.30033,103.8357,NaN,,4.5105,38.70968,109.8929,8-Apr,34221,2018-04-16 21:17:27:232
-2.310475,-0.045491,-9.495694,-2.282533,-0.14308,-9.536222,0.151629,0.03055,0.007008,0.008552,-0.017104,-0.013439,0,-29.3,-49.1,51.3,219.0289,0.8505,166.3321,0,1010.3416,41.73206,30.445305,-84.30033,103.8357,NaN,,4.5105,38.70968,109.8929,8-Apr,34321,2018-04-16 21:17:27:332
-2.286532,-0.395055,-9.414289,-2.299454,-0.156501,-9.531951,-0.269603,-0.087715,-0.100217,0.054978,-0.006109,0.006109,0,-29.1,-49.1,51.5,219.1016,0.9144,166.4373,0,1010.3416,42.28876,30.445305,-84.30033,103.8357,NaN,,4.5105,38.70968,109.8929,8-Apr,34421,2018-04-16 21:17:27:432
-2.365543,0.009577,-9.524426,-2.321005,-0.195771,-9.525995,0.094329,0.0162,0.044667,-0.002443,-0.032987,-0.078191,0,-29.1,-49,51.5,219.075,1.1439,166.3067,0,1010.3477,42.28876,30.445305,-84.30033,103.8357,NaN,,4.5105,38.70968,109.8929,8-Apr,34521,2018-04-16 21:17:27:532
-2.267378,-0.014366,-9.478934,-2.345839,-0.194659,-9.519949,0.01621,0.235362,-0.037996,-0.009774,0.021991,-0.100182,0,-29,-49,51.7,219.075,1.1439,166.3067,0,1010.3477,42.28876,30.445305,-84.30033,103.8357,NaN,,4.5105,38.70968,109.8929,8-Apr,34621,2018-04-16 21:17:27:632
-2.042316,-0.356747,-9.39274,-2.305549,-0.193174,-9.529806,0.263232,-0.163573,0.137066,0.014661,0.004887,0.013439,0,-29,-49,51.7,219.075,1.1439,166.3067,0,1010.3611,43.49953,30.445305,-84.30033,103.8357,NaN,,4.5105,38.70968,109.8929,8-Apr,34722,2018-04-16 21:17:27:733
-2.437372,-0.445335,-9.507666,-2.3138,-0.232379,-9.526907,-0.123571,-0.212956,0.019241,0.004887,-0.032987,0.036652,0,-29.1,-49,51.8,219.0315,1.1287,166.3997,0,1010.3611,43.49953,30.445305,-84.30033,103.8357,NaN,,4.5105,38.70968,109.8929,8-Apr,34822,2018-04-16 21:17:27:833
-2.449343,-0.203513,-9.534002,-2.3138,-0.232379,-9.526907,-0.123571,-0.212956,0.019241,0.004887,-0.032987,0.036652,0,-28.9,-49,51.6,218.9631,1.3578,166.3489,0,1010.3608,43.49953,30.445305,-84.30033,103.8357,NaN,,4.5105,38.70968,109.8929,8-Apr,34922,2018-04-16 21:17:27:933
-2.264984,-0.10056,-9.447808,-2.346117,-0.237473,-9.518875,-0.096044,0.153673,-0.024704,-0.013439,0.012217,-0.017104,0,-28.8,-48.9,51.4,218.9026,1.3876,166.1543,0,1010.3608,43.49953,30.445305,-84.30033,103.8357,NaN,,4.5105,38.70968,109.8929,8-Apr,35022,2018-04-16 21:17:28:033
-2.221887,-0.277736,-9.462174,-2.329604,-0.215044,-9.523466,0.071803,-0.041144,0.025378,0.001222,0.025656,-0.00733,0,-28.8,-48.7,51.1,218.9031,1.2565,166.2544,0,1010.3591,41.78024,30.445305,-84.30033,103.8357,NaN,,4.5105,38.70968,109.8929,7-May,35122,2018-04-16 21:17:28:133
-2.413429,-0.165205,-9.466963,-2.31183,-0.217392,-9.527749,-0.101599,0.052187,0.060786,-0.003665,0.017104,-0.002443,0,-29,-48.7,51.3,218.9031,1.2565,166.2544,0,1010.3591,41.78024,30.445305,-84.30033,103.8357,NaN,,4.5105,38.70968,109.8929,7-May,35222,2018-04-16 21:17:28:233
-2.205127,-0.172388,-9.505271,-2.299858,-0.20932,-9.530826,0.135434,0.039327,0.099777,-0.009774,-0.004887,-0.013439,0,-29.1,-48.7,51.3,218.8223,1.2231,166.4335,0,1010.3713,41.78024,30.445305,-84.30033,103.8357,NaN,,4.5105,38.70968,109.8929,7-May,35322,2018-04-16 21:17:28:333
-2.164424,-0.198725,-9.514848,-2.309912,-0.208775,-9.528431,0.020985,0.019627,0.051891,0.003665,-0.041539,0,0,-29.3,-48.8,51.2,218.8555,1.2199,166.3731,0,1010.3713,39.91757,30.445305,-84.30033,103.8357,NaN,,4.5105,38.70968,109.8929,7-May,35421,2018-04-16 21:17:28:432
-2.420612,-0.181965,-9.536397,-2.309912,-0.208775,-9.528431,0.020985,0.019627,0.051891,0.003665,-0.041539,0,0,-29.3,-48.8,51.2,218.8555,1.2199,166.3731,0,1010.3721,39.91757,30.445305,-84.30033,103.8357,NaN,,4.5105,38.70968,109.8929,7-May,35521,2018-04-16 21:17:28:532
-2.379909,-0.01676,-9.454991,-2.345564,-0.203471,-9.519828,-0.034346,0.186711,0.064837,-0.00733,-0.020769,-0.017104,0,-29.1,-48.8,51.2,218.9809,1.1889,166.1588,0,1010.3721,39.91757,30.445305,-84.30033,103.8357,NaN,,4.5105,38.70968,109.8929,7-May,35621,2018-04-16 21:17:28:632
-2.451737,-0.294496,-9.510059,-2.34266,-0.198895,-9.520632,0.022607,-0.133909,-0.015765,0.013439,0.053756,0.043982,0,-28.8,-48.9,51.4,218.9826,1.1621,166.1764,0,1010.3638,45.98891,30.445305,-84.30033,103.8357,NaN,,4.5105,38.70968,109.8929,7-May,35722,2018-04-16 21:17:28:733
-2.133299,-0.349564,-9.352037,-2.320275,-0.218805,-9.525687,0.160639,0.041628,0.020416,0,-0.039095,-0.03543,0,-28.9,-49,51.7,219.0168,1.2785,166.3104,0,1010.3638,45.98891,30.445305,-84.30033,103.8357,NaN,,4.5105,38.70968,109.8929,7-May,35822,2018-04-16 21:17:28:833
-2.394275,-0.421392,-9.47654,-2.326051,-0.249229,-9.523513,-0.132869,0.002619,0.068522,0.008552,0.032987,0.036652,0,-29.1,-49.1,51.7,218.9622,1.4563,166.2746,0,1010.3608,45.98891,30.445305,-84.30033,103.8357,NaN,,4.5105,38.70968,109.8929,7-May,35921,2018-04-16 21:17:28:932
-2.157241,-0.155628,-9.562734,-2.315406,-0.238055,-9.526381,0.158164,0.082427,-0.036353,-0.018326,-0.00733,-0.021991,0,-29.2,-48.9,51.9,218.9622,1.4563,166.2746,0,1010.3608,45.94422,30.445305,-84.30033,103.8357,NaN,,4.5105,38.70968,109.8929,7-May,36022,2018-04-16 21:17:29:033
-2.420612,-0.220273,-9.486116,-2.315406,-0.238055,-9.526381,0.158164,0.082427,-0.036353,-0.018326,-0.00733,-0.021991,0,-29.3,-48.8,52,218.9622,1.4563,166.2746,0,1010.3572,45.94422,30.445305,-84.30033,103.8357,NaN,,4.5105,38.70968,109.8929,0 / 7,36122,2018-04-16 21:17:29:133
-2.394275,-0.172388,-9.4095,-2.32445,-0.225299,-9.524487,-0.13447,0.00742,0.095832,0.001222,-0.020769,-0.023213,0,-29.3,-48.7,51.9,219.0146,1.3164,166.2851,0,1010.3572,45.94422,30.445305,-84.30033,103.8357,NaN,,4.5105,38.70968,109.8929,0 / 7,36222,2018-04-16 21:17:29:233
-2.166818,0.10056,-9.450203,-2.333396,-0.223738,-9.522335,0.022921,-0.087518,-0.061947,-0.001222,0.010996,0.021991,0,-29.3,-48.7,51.9,219.0146,1.3164,166.2851,0,1010.3589,45.94422,30.445305,-84.30033,103.8357,NaN,,4.5105,38.70968,109.8929,0 / 7,36322,2018-04-16 21:17:29:333
-2.387092,-0.323227,-9.478934,-2.317483,-0.218881,-9.526338,-0.119889,-0.15702,0.059375,0.029322,0.046426,0.059865,0,-29.1,-48.8,51.5,219.0472,1.3073,166.2313,0,1010.3589,39.51488,30.445305,-84.30033,103.8357,NaN,,4.5105,38.70968,109.8929,0 / 7,36422,2018-04-16 21:17:29:433
-2.329629,-0.189148,-9.579494,-2.298285,-0.2245,-9.530861,0.114707,0.047324,-0.015113,-0.018326,0.020769,0.039095,0,-29,-48.8,51.5,219.0472,1.3073,166.2313,0,1010.3584,39.51488,30.445305,-84.30033,103.8357,NaN,,4.5105,38.70968,109.8929,0 / 7,36521,2018-04-16 21:17:29:532
-2.135693,-0.141262,-9.44302,-2.299194,-0.207483,-9.531025,-0.056772,0.094952,0.200536,0.019548,-0.020769,-0.010996,0,-29,-48.7,51.3,218.7814,1.3118,166.4425,0,1010.3584,39.51488,30.445305,-84.30033,103.8357,NaN,,4.5105,38.70968,109.8929,0 / 7,36621,2018-04-16 21:17:29:632
-2.401457,-0.430969,-9.574705,-2.299194,-0.207483,-9.531025,-0.056772,0.094952,0.200536,0.019548,-0.020769,-0.010996,0,-29,-48.7,51.8,218.9761,1.2123,166.4375,0,1010.3662,53.58158,30.445305,-84.30033,103.8357,NaN,,4.5105,38.70968,109.8929,0 / 7,36721,2018-04-16 21:17:29:732
-2.343995,-0.258582,-9.488511,-2.316287,-0.215665,-9.526702,0.106371,-0.050099,0.145933,-0.002443,-0.032987,0.034208,0,-28.9,-48.8,52.1,219.0115,1.2601,166.3345,0,1010.3662,53.58158,30.445305,-84.30033,103.8357,NaN,,4.5105,38.70968,109.8929,0 / 7,36821,2018-04-16 21:17:29:832
-2.619336,-0.210696,-9.538791,-2.352851,-0.227384,-9.517479,-0.266486,0.016688,-0.021312,0,-0.014661,0.003665,0,-28.8,-48.8,51.9,219.1009,1.3286,166.1141,0,1010.3628,53.58158,30.445305,-84.30033,103.8357,NaN,,4.5105,38.70968,109.8929,0 / 7,36921,2018-04-16 21:17:29:932
-2.389486,-0.134079,-9.548368,-2.35347,-0.211603,-9.517682,0.035812,0.03682,0.045931,-0.036652,0.062308,-0.086743,0,-28.8,-48.8,51.9,219.1009,1.3286,166.1141,0,1010.3628,44.44475,30.445305,-84.30033,103.8357,NaN,,4.5105,38.70968,109.8929,0 / 7,37021,2018-04-16 21:17:30:032
-2.042316,-0.146051,-9.495694,-2.289834,-0.192555,-9.533598,0.345683,0.223681,-0.007587,-0.012217,0.002443,-0.042761,0,-28.9,-48.7,51.6,219.141,1.2364,166.1109,0,1010.3662,44.44475,30.445305,-84.30033,103.8357,NaN,,4.5105,38.70968,109.8929,8-May,37121,2018-04-16 21:17:30:132
-2.166818,-0.203513,-9.529214,-2.247665,-0.189886,-9.543674,0.080847,-0.013627,0.014461,0.031765,-0.0281,0.092852,0,-29.2,-48.9,51.5,218.9821,1.1251,166.4942,0,1010.3662,44.44475,30.445305,-84.30033,103.8357,NaN,,4.5105,38.70968,109.8929,8-May,37222,2018-04-16 21:17:30:233
-2.403852,-0.193936,-9.500483,-2.247665,-0.189886,-9.543674,0.080847,-0.013627,0.014461,0.031765,-0.0281,0.092852,0,-29.5,-48.9,51.6,218.8518,1.1095,166.7476,0,1010.3706,44.65148,30.445305,-84.30033,103.8357,NaN,,4.5105,38.70968,109.8929,8-May,37322,2018-04-16 21:17:30:333
-2.528354,-0.237033,-9.416683,-2.281406,-0.194715,-9.535573,-0.165542,0.043876,0.054245,0.002443,-0.025656,0.050091,0,-29.4,-48.8,51.7,218.9496,1.1377,166.5448,0,1010.3706,44.65148,30.445305,-84.30033,103.8357,NaN,,4.5105,38.70968,109.8929,8-May,37422,2018-04-16 21:17:30:433
-2.360755,-0.366324,-9.545974,-2.31213,-0.188827,-9.528291,-0.144396,-0.048206,0.080482,-0.002443,0.019548,-0.008552,0,-29.3,-48.9,52,219.0633,1.1033,166.3603,0,1010.3779,44.65148,30.445305,-84.30033,103.8357,NaN,,4.5105,38.70968,109.8929,8-May,37521,2018-04-16 21:17:30:532
-2.123722,-0.253793,-9.366403,-2.316977,-0.193152,-9.527029,0.152553,0.047102,0.17978,-0.014661,-0.017104,-0.010996,0,-29.3,-48.9,52,219.0633,1.1033,166.3603,0,1010.3779,44.65148,30.445305,-84.30033,103.8357,NaN,,4.5105,38.70968,109.8929,8-May,37622,2018-04-16 21:17:30:633
-2.248224,0.047885,-9.634562,-2.338342,-0.186853,-9.521916,0.090118,0.234739,-0.112645,-0.019548,-0.065973,-0.031765,0,-29.2,-48.9,52.1,219.0684,1.1286,166.331,0,1010.3816,36.49877,30.445305,-84.30033,103.8357,NaN,,4.5105,38.70968,109.8929,8-May,37722,2018-04-16 21:17:30:733
-2.420612,-0.023943,-9.608225,-2.356618,-0.145747,-9.518136,-0.083148,-0.103257,0.082299,0.003665,0.029322,0.009774,0,-28.7,-48.9,51.1,219.0684,1.1286,166.331,0,1010.3816,36.49877,30.445305,-84.30033,103.8357,NaN,,4.5105,38.70968,109.8929,8-May,37821,2018-04-16 21:17:30:832
-2.439766,-0.289707,-9.454991,-2.356618,-0.145747,-9.518136,-0.083148,-0.103257,0.082299,0.003665,0.029322,0.009774,0,-27.9,-48.9,50,218.3084,0.8516,166.0937,0,1010.3911,36.49877,30.445305,-84.30033,103.8357,NaN,,4.5105,38.70968,109.8929,8-May,37922,2018-04-16 21:17:30:933
-2.243435,-0.098165,-9.531608,-2.336484,-0.138433,-9.523226,-0.024271,-0.055503,0.029926,-0.020769,0.042761,0.024435,0,-27.6,-49.1,49.3,218.0994,0.8088,166.215,0,1010.3911,42.97237,30.445305,-84.30033,103.8357,NaN,,4.5105,38.70968,109.8929,8-May,38022,2018-04-16 21:17:31:033
-2.06147,-0.205908,-9.454991,-2.304264,-0.121138,-9.531307,0.242794,-0.08477,0.076316,-0.010996,0.023213,0.002443,0,-28.5,-49.3,50.4,218.2005,0.7078,166.4091,0,1010.4009,42.97237,30.445305,-84.30033,103.8357,NaN,,4.5105,38.70968,109.8929,7-Jun,38121,2018-04-16 21:17:31:132
-2.205127,-0.134079,-9.416683,-2.279356,-0.117534,-9.537312,0.031132,-0.026122,0.036829,0.030543,-0.015882,0.040317,0,-29.3,-49.4,51.5,219.1332,0.6867,166.5588,0,1010.4009,42.97237,30.445305,-84.30033,103.8357,NaN,,4.5105,38.70968,109.8929,7-Jun,38222,2018-04-16 21:17:31:233
-2.233858,-0.217879,-9.42626,-2.293703,-0.138929,-9.533601,-0.059869,-0.074162,0.057061,0.018326,-0.0281,0.036652,0,-29.3,-49.4,51.5,219.1332,0.6867,166.5588,0,1010.4158,42.85816,30.445305,-84.30033,103.8357,NaN,,4.5105,38.70968,109.8929,7-Jun,38322,2018-04-16 21:17:31:333
-2.480469,-0.0838,-9.474146,-2.315513,-0.136841,-9.528367,-0.023693,0.086561,0.006336,-0.026878,0.019548,-0.013439,0,-29.5,-49.5,51.8,219.1264,0.8117,166.4722,0,1010.4158,42.85816,30.445305,-84.30033,103.8357,NaN,,4.5105,38.70968,109.8929,7-Jun,38422,2018-04-16 21:17:31:433
-2.284138,-0.045491,-9.438231,-2.315513,-0.136841,-9.528367,-0.023693,0.086561,0.006336,-0.026878,0.019548,-0.013439,0,-29.3,-49.4,51.8,219.2017,0.7995,166.3412,0,1010.4099,42.85816,30.445305,-84.30033,103.8357,NaN,,4.5105,38.70968,109.8929,7-Jun,38522,2018-04-16 21:17:31:533
-2.174001,-0.114925,-9.4095,-2.299605,-0.122204,-9.532393,0.125604,0.007279,0.122893,-0.002443,0.004887,-0.002443,0,-29.3,-49.4,51.8,219.1868,0.714,166.4371,0,1010.4099,38.72215,30.445305,-84.30033,103.8357,NaN,,4.5105,38.70968,109.8929,7-Jun,38622,2018-04-16 21:17:31:633
-1.992037,-0.253793,-9.510059,-2.299475,-0.145414,-9.532102,0.26913,-0.134717,-0.250905,0.012217,-0.042761,-0.041539,0,-29.3,-49.3,51.7,219.129,0.8496,166.4374,0,1010.3989,38.72215,30.445305,-84.30033,103.8357,NaN,,4.5105,38.70968,109.8929,7-Jun,38722,2018-04-16 21:17:31:733
-2.645674,-0.174782,-9.534002,-2.340964,-0.16202,-9.521732,-0.125139,-0.007974,0.069136,0.002443,-0.014661,0.009774,0,-29,-49.2,51.7,219.2215,0.9467,166.1875,0,1010.3989,38.72215,30.445305,-84.30033,103.8357,NaN,,4.5105,38.70968,109.8929,7-Jun,38822,2018-04-16 21:17:31:833
-2.353572,-0.090982,-9.454991,-2.378815,-0.162902,-9.512327,-0.032219,0.052766,0.030999,-0.017104,0.021991,0,0,-29,-49.2,51.7,219.2215,0.9467,166.1875,0,1010.4077,38.72215,30.445305,-84.30033,103.8357,NaN,,4.5105,38.70968,109.8929,7-Jun,38921,2018-04-16 21:17:31:932
-2.353572,-0.177176,-9.445415,-2.367155,-0.149886,-9.515446,0.013583,-0.048839,0.103552,-0.002443,0.015882,-0.024435,0,-28.7,-49.1,51.6,219.3403,0.9518,165.9596,0,1010.4077,38.83054,30.445305,-84.30033,103.8357,NaN,,4.5105,38.70968,109.8929,7-Jun,39022,2018-04-16 21:17:32:033
-2.315264,-0.162811,-9.510059,-2.367155,-0.149886,-9.515446,0.013583,-0.048839,0.103552,-0.002443,0.015882,-0.024435,0,-28.7,-49,51.5,219.3403,0.9518,165.9596,0,1010.3979,38.83054,30.445305,-84.30033,103.8357,NaN,,4.5105,38.70968,109.8929,7-Jun,39121,2018-04-16 21:17:32:132
-2.281744,-0.160416,-9.466963,-2.350747,-0.154242,-9.51946,0.04985,-0.015751,0.04292,-0.004887,0.002443,-0.015882,0,-28.8,-49,51.8,219.2719,0.9012,166.1288,0,1010.3979,38.83054,30.4452,-84.30034,75.4242,NaN,,1.9025,51.612904,159.1931,7-May,39222,2018-04-16 21:17:32:233
-2.377515,-0.138868,-9.469357,-2.344304,-0.152053,-9.521072,0.038618,0.020367,0.068476,0.001222,-0.001222,0.004887,0,-28.8,-49,52,219.2719,0.9012,166.1288,0,1010.3923,39.86041,30.4452,-84.30034,75.4242,87.66837645,,1.9025,51.612904,159.1931,7-May,39322,2018-04-16 21:17:32:333
-2.353572,-0.150839,-9.469357,-2.340056,-0.150416,-9.52215,-0.013516,-4.24E-04,0.052794,0.002443,0.003665,0.013439,0,-28.4,-49.2,50.8,218.4063,0.8788,166.1932,0,1010.3923,39.86041,30.4452,-84.30034,75.4242,87.66837645,,1.9025,51.612904,159.1931,7-May,39422,2018-04-16 21:17:32:433
-2.336812,-0.136474,-9.466963,-2.336795,-0.150417,-9.522946,0.031109,-0.007605,0.034435,0,-0.001222,-0.008552,0,-27.8,-49.1,49.3,218.0832,0.8788,166.1932,0,1010.3879,39.86041,30.4452,-84.30034,75.4242,87.66837645,,1.9025,51.612904,159.1931,7-May,39522,2018-04-16 21:17:32:533
-2.312869,-0.141262,-9.502876,-2.33751,-0.151144,-9.522779,-0.028034,-0.026033,0.067788,0.001222,0,-0.009774,0,-27.8,-49.1,49.4,218.073,0.8789,166.2129,0,1010.3879,39.10799,30.4452,-84.30034,75.4242,87.66837645,,1.9025,51.612904,159.1931,7-May,39622,2018-04-16 21:17:32:633
-2.343995,-0.210696,-9.478934,-2.33751,-0.151144,-9.522779,-0.028034,-0.026033,0.067788,0.001222,0,-0.009774,0,-27.8,-49.1,49.4,218.073,0.8789,166.2129,0,1010.3862,39.10799,30.4452,-84.30034,75.4242,87.66837645,,1.9025,51.612904,159.1931,7-May,39722,2018-04-16 21:17:32:733
-2.497228,-0.34717,-9.512454,-2.331886,-0.16358,-9.523933,-0.165343,-0.18359,0.011479,0.014661,0.03543,0.004887,0,-28.3,-49.1,50.8,218.3963,0.8831,166.2086,0,1010.3862,39.10799,30.4452,-84.30034,75.4242,87.66837645,,1.9025,51.612904,159.1931,7-May,39822,2018-04-16 21:17:32:833
-2.073442,-0.189148,-9.4095,-2.337074,-0.172948,-9.522524,0.15589,-0.001834,0.122601,-0.018326,-0.017104,-0.050091,0,-28.9,-49.1,52.1,219.1886,0.9558,166.2421,0,1010.3899,37.28919,30.4452,-84.30034,75.4242,87.66837645,,1.9025,51.612904,159.1931,7-May,39921,2018-04-16 21:17:32:932
-2.310475,0.047885,-9.500483,-2.344197,-0.173208,-9.520752,-0.035712,0.221093,0.00351,-0.006109,0.004887,0.026878,0,-29,-48.9,51.9,219.2045,1.012,166.1678,0,1010.3899,37.28919,30.4452,-84.30034,75.4242,87.66837645,,1.9025,51.612904,159.1931,7-May,40022,2018-04-16 21:17:33:033
-2.382303,-0.220273,-9.440625,-2.334197,-0.139266,-9.523757,-0.036134,0.05786,0.013698,-0.003665,0.0281,0.002443,0,-29,-48.9,52,219.2557,0.8137,166.2287,0,1010.3879,37.28919,30.4452,-84.30034,75.4242,87.66837645,,1.9025,51.612904,159.1931,7-May,40122,2018-04-16 21:17:33:133
-2.279349,-0.301679,-9.505271,-2.309233,-0.145983,-9.529738,0.029883,-0.155695,0.024467,-0.006109,0.008552,0.004887,0,-29,-48.8,51.9,219.159,0.8529,166.3787,0,1010.3879,37.28919,30.4452,-84.30034,75.4242,87.66837645,,1.9025,51.612904,159.1931,7-May,40222,2018-04-16 21:17:33:233
-2.219493,-0.090982,-9.421472,-2.309233,-0.145983,-9.529738,0.029883,-0.155695,0.024467,-0.006109,0.008552,0.004887,0,-29,-48.8,51.9,219.159,0.8529,166.3787,0,1010.384,39.46211,30.4452,-84.30034,75.4242,87.66837645,,1.9025,51.612904,159.1931,7-May,40322,2018-04-16 21:17:33:333
-2.348783,-0.107742,-9.474146,-2.315036,-0.144198,-9.528346,0.164978,0.007724,0.030258,0,-0.010996,-0.015882,0,-29.1,-48.9,52.1,219.1821,0.8425,166.3438,0,1010.384,39.46211,30.4452,-84.30034,75.4242,87.66837645,,1.9025,51.612904,159.1931,7-May,40422,2018-04-16 21:17:33:433
-2.353572,-0.232245,-9.498088,-2.31296,-0.14555,-9.528831,-0.076526,-0.01726,0.042714,0.00733,-0.003665,0.019548,0,-28.8,-48.8,51.4,219.0162,0.8504,166.3563,0,1010.3918,39.46211,30.4452,-84.30034,75.4242,87.66837645,,1.9025,51.612904,159.1931,7-May,40522,2018-04-16 21:17:33:533
-2.327235,-0.119714,-9.555551,-2.326152,-0.15399,-9.525491,-0.104037,-0.006427,0.094442,-0.009774,-0.006109,-0.017104,0,-28.8,-48.8,51.3,219.0375,0.8997,166.2768,0,1010.3918,40.15962,30.4452,-84.30034,75.4242,87.66837645,,1.9025,51.612904,159.1931,7-May,40622,2018-04-16 21:17:33:633
-2.255407,-0.122108,-9.524426,-2.324311,-0.147985,-9.526047,0.104819,-0.022008,0.049507,0.001222,0.009774,-0.004887,0,-28.9,-48.8,51.4,219.0462,0.8646,166.288,0,1010.3806,40.15962,30.4452,-84.30034,75.4242,87.66837645,,1.9025,51.612904,159.1931,7-May,40722,2018-04-16 21:17:33:733
-2.267378,-0.155628,-9.486116,-2.311084,-0.144531,-9.529326,0.043706,-0.011097,0.04321,-0.003665,0.008552,0.003665,0,-28.9,-48.8,51.5,219.1685,0.8445,166.3677,0,1010.3806,40.15962,30.4452,-84.30034,75.4242,87.66837645,,1.9025,51.612904,159.1931,7-May,40822,2018-04-16 21:17:33:833
-2.346389,-0.107742,-9.483723,-2.311084,-0.144531,-9.529326,0.043706,-0.011097,0.04321,-0.003665,0.008552,0.003665,0,-28.9,-48.8,51.5,219.1685,0.8445,166.3677,0,1010.3806,34.41718,30.4452,-84.30034,75.4242,87.66837645,,1.9025,51.612904,159.1931,7-May,40921,2018-04-16 21:17:33:932
-2.320052,-0.158022,-9.486116,-2.311462,-0.14373,-9.529236,-0.015773,0.04317,0.079033,-0.004887,-0.020769,-0.001222,0,-28.9,-48.8,51.3,219.0158,0.8398,166.3654,0,1010.3806,34.41718,30.4452,-84.30034,75.4242,87.66837645,,1.9025,51.612904,159.1931,7-May,41022,2018-04-16 21:17:34:033
-2.351178,-0.196331,-9.428655,-2.320992,-0.14477,-9.526921,-0.051734,-0.056349,0.076718,0.009774,0.003665,0.00733,0,-28.7,-48.8,51.3,219.0158,0.8398,166.3654,0,1010.3823,34.41718,30.4452,-84.30034,75.4242,87.66837645,,1.9025,51.612904,159.1931,8-May,41122,2018-04-16 21:17:34:133
-2.300898,-0.131685,-9.483723,-2.322373,-0.149796,-9.526483,0.00711,0.010928,-0.014703,-0.00733,0.002443,-0.020769,0,-28.9,-48.9,51.4,219.0158,0.8398,166.3654,0,1010.3823,37.66412,30.4452,-84.30034,75.4242,87.66837645,,1.9025,51.612904,159.1931,8-May,41222,2018-04-16 21:17:34:233
-2.315264,-0.167599,-9.493299,-2.316259,-0.150762,-9.527974,-0.032524,-0.026415,0.063406,-0.001222,0,0.003665,0,-28.9,-49,51.5,219.1919,0.8752,166.2996,0,1010.3811,37.66412,30.4452,-84.30034,75.4242,87.66837645,,1.9025,51.612904,159.1931,8-May,41321,2018-04-16 21:17:34:332
-2.288926,-0.06704,-9.505271,-2.317738,-0.143043,-9.527711,0.071908,-0.012585,0.077508,-0.001222,0,-0.012217,0,-28.9,-48.9,51.3,219.1919,0.8752,166.2996,0,1010.3811,37.66412,30.4452,-84.30034,75.4242,87.66837645,,1.9025,51.612904,159.1931,8-May,41423,2018-04-16 21:17:34:434
-2.291321,-0.153234,-9.474146,-2.317738,-0.143043,-9.527711,0.071908,-0.012585,0.077508,-0.001222,0,-0.012217,0,-28.8,-48.8,51.4,219.0373,0.8358,166.3276,0,1010.3752,37.66412,30.4452,-84.30034,75.4242,87.66837645,,1.9025,51.612904,159.1931,8-May,41521,2018-04-16 21:17:34:532
-2.324841,-0.126897,-9.57231,-2.314525,-0.143484,-9.528508,-0.010315,0.016587,-0.043802,-0.002443,-0.002443,0,0,-28.8,-48.7,51.4,219.0261,0.8383,166.347,0,1010.3752,35.94168,30.4452,-84.30034,75.4242,87.66837645,,1.9025,51.612904,159.1931,8-May,41622,2018-04-16 21:17:34:633
-2.377515,-0.10056,-9.466963,-2.313223,-0.141855,-9.528844,-0.028378,-0.008984,0.059487,-0.004887,0.001222,0.021991,0,-28.8,-48.8,51.4,219.0259,0.8288,166.3548,0,1010.3674,35.94168,30.4452,-84.30034,75.4242,87.66837645,,1.9025,51.612904,159.1931,8-May,41722,2018-04-16 21:17:34:733
-2.243435,-0.217879,-9.471751,-2.307572,-0.133794,-9.530325,0.044983,0.028445,0.022659,-0.006109,0.008552,0.008552,0,-28.8,-48.8,51.4,219.0259,0.8288,166.3548,0,1010.3674,35.94168,30.4452,-84.30034,75.4242,87.66837645,,1.9025,51.612904,159.1931,8-May,41822,2018-04-16 21:17:34:833
-2.332023,-0.110137,-9.502876,-2.303019,-0.133293,-9.531442,-0.012245,-0.075009,0.040536,0,0.001222,0.012217,0,-29,-48.9,51.1,219.0275,0.7817,166.389,0,1010.3728,36.14169,30.4452,-84.30034,75.4242,87.66837645,,1.9025,51.612904,159.1931,8-May,41921,2018-04-16 21:17:34:932
-2.293715,-0.086194,-9.488511,-2.303019,-0.133293,-9.531442,-0.012245,-0.075009,0.040536,0,0.001222,0.012217,0,-29,-48.9,51.2,219.0143,0.7788,166.4164,0,1010.3728,36.14169,30.4452,-84.30034,75.4242,87.66837645,,1.9025,51.612904,159.1931,8-May,42022,2018-04-16 21:17:35:033
-2.274561,-0.119714,-9.450203,-2.305015,-0.133221,-9.530939,-0.031797,0.030267,0.008908,-0.00733,-0.002443,-0.021991,0,-28.9,-48.8,51.2,219.0208,0.7784,166.4043,0,1010.3757,36.14169,30.4452,-84.30034,75.4242,87.66837645,,1.9025,51.612904,159.1931,7-May,42122,2018-04-16 21:17:35:133
-2.264984,-0.117319,-9.478934,-2.302725,-0.133795,-9.531487,0.023376,0.009293,0.0334,-0.009774,0.004887,-0.002443,0,-29,-48.8,51.3,219.0122,0.7817,166.4181,0,1010.3757,38.04353,30.4452,-84.30034,75.4242,87.66837645,,1.9025,51.612904,159.1931,7-May,42221,2018-04-16 21:17:35:232
-2.310475,-0.088588,-9.481328,-2.29931,-0.125233,-9.532451,0.03672,0.041434,0.031968,-0.003665,0,0.008552,0,-29,-48.8,51.1,219.0122,0.7817,166.4181,0,1010.3792,38.04353,30.4452,-84.30034,75.4242,87.66837645,,1.9025,51.612904,159.1931,7-May,42322,2018-04-16 21:17:35:333
-2.22907,-0.148445,-9.534002,-2.299866,-0.118796,-9.532389,0.070796,-0.029649,-0.001614,-0.003665,0,0.008552,0,-29,-48.9,51.4,219.0394,0.6941,166.4356,0,1010.3792,38.04353,30.4452,-84.30034,75.4242,87.66837645,,1.9025,51.612904,159.1931,7-May,42422,2018-04-16 21:17:35:433
-2.346389,-0.086194,-9.47654,-2.302642,-0.122564,-9.53166,-0.015016,0.043553,0.074275,0.010996,-0.008552,0.030543,0,-29,-48.9,51.4,219.0394,0.6941,166.4356,0,1010.3699,40.30072,30.4452,-84.30034,75.4242,87.66837645,,1.9025,51.612904,159.1931,7-May,42521,2018-04-16 21:17:35:532
-2.343995,-0.114925,-9.538791,-2.30637,-0.124927,-9.53072,-0.071144,-0.045066,0.073335,-0.002443,0,-0.012217,0,-28.8,-48.8,51.2,219.0391,0.7161,166.4188,0,1010.3699,40.30072,30.4452,-84.30034,75.4242,87.66837645,,1.9025,51.612904,159.1931,7-May,42621,2018-04-16 21:17:35:632
-2.236253,-0.052674,-9.507666,-2.30637,-0.124927,-9.53072,-0.071144,-0.045066,0.073335,-0.003665,0.012217,-0.008552,0,-28.9,-48.9,51.3,219.0451,0.7299,166.3963,0,1010.3689,40.30072,30.4452,-84.30034,75.4242,87.66837645,,1.9025,51.612904,159.1931,7-May,42722,2018-04-16 21:17:35:733
-2.224281,-0.098165,-9.507666,-2.299151,-0.122898,-9.532519,0.074869,0.024733,0.024854,0.004887,-0.012217,0.009774,0,-29,-48.9,51.4,219.0272,0.7181,166.4398,0,1010.3689,40.30072,30.4452,-84.30034,75.4242,87.66837645,,1.9025,51.612904,159.1931,7-May,42822,2018-04-16 21:17:35:833
-2.300898,-0.06704,-9.440625,-2.302168,-0.12054,-9.531802,-0.029856,0.046318,0.081599,0.012217,0.012217,0.013439,0,-29,-49,51.5,219.1992,0.7043,166.4217,0,1010.3748,36.1494,30.4452,-84.30034,75.4242,87.66837645,,1.9025,51.612904,159.1931,7-May,42922,2018-04-16 21:17:35:933
-2.315264,-0.239427,-9.450203,-2.295568,-0.129233,-9.533272,0.006641,-0.100618,-0.015096,0.012217,0.012217,0.013439,0,-28.9,-49.1,51.6,219.1992,0.7043,166.4217,0,1010.3748,36.1494,30.4452,-84.30034,75.4242,87.66837645,,1.9025,51.612904,159.1931,7-May,43022,2018-04-16 21:17:36:033
-2.250618,-0.059857,-9.411894,-2.299436,-0.13969,-9.53221,0.07276,0.017582,-0.133477,0,-0.008552,-0.030543,0,-29,-49,51.7,219.143,0.8162,166.4378,0,1010.377,36.1494,30.4452,-84.30034,75.4242,87.66837645,,1.9025,51.612904,159.1931,7-May,43121,2018-04-16 21:17:36:132
-2.257801,-0.234639,-9.531608,-2.303664,-0.145132,-9.531096,0.045863,-0.089507,-5.12E-04,0.004887,0.0281,0.024435,0,-28.9,-49,51.8,219.143,0.8162,166.4378,0,1010.377,36.94301,30.4452,-84.30034,75.4242,87.66837645,,1.9025,51.612904,159.1931,7-May,43221,2018-04-16 21:17:36:232
-2.298504,-0.086194,-9.493299,-2.303664,-0.145132,-9.531096,0.045863,-0.089507,-5.12E-04,0.004887,0.0281,0.024435,0,-28.9,-49,51.8,219.143,0.8162,166.4378,0,1010.3645,36.94301,30.4452,-84.30034,75.4242,87.66837645,,1.9025,51.612904,159.1931,7-May,43322,2018-04-16 21:17:36:333
-2.413429,-0.169993,-9.517242,-2.306978,-0.151538,-9.530184,-0.022651,0.034219,0.094347,-0.002443,-0.032987,-0.025656,0,-28.8,-48.9,51.9,219.1432,0.848,166.4122,0,1010.3645,36.94301,30.4452,-84.30034,75.4242,87.66837645,,1.9025,51.612904,159.1931,7-May,43422,2018-04-16 21:17:36:433
-2.372726,-0.0838,-9.498088,-2.33262,-0.155815,-9.52391,-0.143059,0.124689,0.011456,-0.001222,-0.003665,0.018326,0,-28.6,-48.9,51.6,219.1381,0.8854,166.3921,0,1010.3604,36.84934,30.4452,-84.30034,75.4242,87.66837645,,1.9025,51.612904,159.1931,7-May,43522,2018-04-16 21:17:36:533
-2.394275,-0.177176,-9.447808,-2.338927,-0.139487,-9.522597,-0.055347,-0.037689,0.074789,-0.004887,0.006109,-0.018326,0,-28.6,-48.9,51.3,219.0536,0.9104,166.2379,0,1010.3604,36.84934,30.4452,-84.30034,75.4242,87.66837645,,1.9025,51.612904,159.1931,7-May,43622,2018-04-16 21:17:36:633
-2.310475,-0.093377,-9.545974,-2.324938,-0.130791,-9.52613,0.105446,0.070934,0.008887,-0.012217,0.021991,0.00733,0,-28.7,-48.8,51.4,219.1127,0.815,166.2003,0,1010.355,36.84934,30.4452,-84.30034,75.4242,87.66837645,,1.9025,51.612904,159.1931,7-May,43722,2018-04-16 21:17:36:733
-2.343995,-0.189148,-9.414289,-2.297088,-0.124718,-9.532976,0.094355,-0.208086,0.025311,0.003665,0.021991,0.015882,0,-28.8,-49,51.6,219.1127,0.815,166.2003,0,1010.355,36.59149,30.4452,-84.30034,75.4242,87.66837645,,1.9025,51.612904,159.1931,7-May,43821,2018-04-16 21:17:36:832
-2.17879,-0.146051,-9.474146,-2.297088,-0.124718,-9.532976,0.094355,-0.208086,0.025311,0.003665,0.021991,0.015882,0,-29.2,-49.2,51.7,219.1725,0.7287,166.4522,0,1010.3389,36.59149,30.4452,-84.30034,75.4242,87.66837645,,1.9025,51.612904,159.1931,7-May,43922,2018-04-16 21:17:36:933
-2.324841,-0.052674,-9.500483,-2.297151,-0.13394,-9.532821,-0.104306,0.105208,0.051493,0,-0.002443,-0.006109,0,-29.2,-49.2,51.7,219.1725,0.7287,166.4522,0,1010.3389,36.59149,30.4452,-84.30034,75.4242,87.66837645,,1.9025,51.612904,159.1931,7-May,44022,2018-04-16 21:17:37:033
-2.183579,-0.179571,-9.47654,-2.281339,-0.125089,-9.536752,0.124098,-0.013779,0.067395,-0.008552,0.009774,-0.025656,0,-29.3,-49.2,51.8,219.1499,0.7826,166.4516,0,1010.3506,36.59149,30.4452,-84.30034,75.4242,87.66837645,,1.9025,51.612904,159.1931,0 / 7,44122,2018-04-16 21:17:37:133
-2.365543,-0.098165,-9.478934,-2.280353,-0.129789,-9.536924,-0.08519,0.031623,0.05799,0.006109,-0.003665,0.008552,0,-29.3,-49.2,51.4,219.1499,0.7826,166.4516,0,1010.3506,37.38007,30.4452,-84.30034,75.4242,87.66837645,,1.9025,51.612904,159.1931,0 / 7,44222,2018-04-16 21:17:37:233
-2.200338,-0.186753,-9.47654,-2.281442,-0.130786,-9.536673,-0.009879,-0.015265,0.110413,0.010996,-0.019548,0.010996,0,-29.1,-49.1,51.2,218.951,0.7583,166.5526,0,1010.3464,37.38007,30.4452,-84.30034,75.4242,87.66837645,,1.9025,51.612904,159.1931,0 / 7,44321,2018-04-16 21:17:37:332
-2.377515,-0.081405,-9.519637,-2.296002,-0.134803,-9.533088,0.105241,0.029455,0.030211,0,-0.002443,-0.010996,0,-29.1,-49.2,51.6,219.107,0.7641,166.5461,0,1010.3464,37.38007,30.4452,-84.30034,75.4242,87.66837645,,1.9025,51.612904,159.1931,0 / 7,44422,2018-04-16 21:17:37:433
-2.341601,-0.093377,-9.474146,-2.296002,-0.134803,-9.533088,0.105241,0.029455,0.030211,0,-0.002443,-0.010996,0,-29.1,-49.1,51.7,219.144,0.7876,166.4585,0,1010.3433,36.05953,30.4452,-84.30034,75.4242,87.66837645,,1.9025,51.612904,159.1931,0 / 7,44522,2018-04-16 21:17:37:533
