ACCELEROMETER X (m/s²),ACCELEROMETER Y (m/s²),ACCELEROMETER Z (m/s²),GRAVITY X (m/s²),GRAVITY Y (m/s²),GRAVITY Z (m/s²),LINEAR ACCELERATION X (m/s²),LINEAR ACCELERATION Y (m/s²),LINEAR ACCELERATION Z (m/s²),GYROSCOPE X (rad/s),GYROSCOPE Y (rad/s),GYROSCOPE Z (rad/s),LIGHT (lux),MAGNETIC FIELD X (μT),MAGNETIC FIELD Y (μT),MAGNETIC FIELD Z (μT),ORIENTATION Z (azimuth °),ORIENTATION X (pitch °),ORIENTATION Y (roll °),PROXIMITY (i),ATMOSPHERIC PRESSURE (hPa),SOUND LEVEL (dB),LOCATION Latitude : ,LOCATION Longitude : ,LOCATION Altitude ( m),LOCATION Altitude-google ( m),LOCATION Altitude-atmospheric pressure ( m),LOCATION Speed ( Kmh),LOCATION Accuracy ( m),LOCATION ORIENTATION (°),Satellites in range,Time since start in ms ,YYYY-MO-DD HH-MI-SS_SSS,,,LABEL_DATA
-1.7961,5.102,8.1817,-2.0355,5.2368,8.0417,-0.3886,0.0195,0.2238,0.0766,-0.0493,-0.0381,16.903,20.71,-33.9,-22.98,225.8,-32.02,14.32,2,1006.02,38.007,,,,NaN,,,,,0 / 18,5,2018-04-26 01:05:55:339,,,
-1.7161,5.2115,8.2609,-1.9971,5.2597,8.0364,-0.3072,0.0011,0.0826,0.03,-0.0565,-0.0199,16.903,17.62,-32.46,-23.97,223.76,-32.42,13.96,2,1006.03,38.007,,,,NaN,,,,,0 / 18,104,2018-04-26 01:05:55:438,,,
-1.7388,5.232,8.0653,-1.9318,5.2626,8.0504,-0.0871,-0.0801,0.1752,0.0058,-0.0875,-0.0293,16.903,15.59,-30.83,-23.35,219.67,-32.48,13.83,2,1006.03,25.381,,,,NaN,,,,,0 / 18,204,2018-04-26 01:05:55:538,,,
-1.8116,5.2284,7.9646,-1.4853,5.2733,8.1377,0.1797,-0.017,0.0519,-0.0742,-0.3615,0.184,16.903,10.37,-30.75,-21.81,199.97,-32.3,12.68,2,1006.03,25.381,,,,NaN,,,,,0 / 18,304,2018-04-26 01:05:55:638,,,
-2.4133,5.6341,9.1413,-0.7438,5.5487,8.0557,0.1809,-0.0429,-0.9941,0.4561,-1.4137,0.5794,16.903,0.51,-33.61,-16.03,178.56,-34.45,5.28,2,1006.03,25.381,,,,NaN,,,,,0 / 18,404,2018-04-26 01:05:55:738,,,
2.0238,5.8774,5.5357,0.4254,4.8413,8.5215,-0.1392,-0.2176,1.3708,-1.0857,-0.8386,-0.1049,16.903,-5.08,-38.17,-14.46,170.63,-29.57,-2.86,2,1006.03,25.381,,,,NaN,,,,,0 / 18,505,2018-04-26 01:05:55:839,,,
0.4744,5.108,7.2186,0.6954,4.0351,8.9146,-0.8324,0.5971,-0.0246,-0.8851,0.0973,0.0017,16.903,2.29,-38.65,-20.87,187.65,-24.29,-4.46,2,1006.03,27.241,,,,NaN,,,,,0 / 18,604,2018-04-26 01:05:55:938,,,
0.497,3.7042,10.5002,0.6522,3.9494,8.9562,0.2772,0.2402,-1.1096,0.1419,-0.0105,-0.1943,16.903,7.75,-36.99,-26.5,200.89,-22.07,-3.17,2,1006.03,27.241,,,,NaN,,,,,0 / 18,705,2018-04-26 01:05:56:039,,,
1.2431,4.3278,8.8894,0.829,4.2903,8.7831,-0.3357,0.5109,0.427,0.1461,-0.1509,-0.3531,19.016,9.19,-38.28,-27.06,206.35,-25.3,-5.42,2,1006.03,27.241,,,,NaN,,,,,0 / 18,804,2018-04-26 01:05:56:138,,,
1.9092,4.3038,10.5494,0.5979,4.0293,8.9243,-0.4157,-0.4446,-0.085,-0.2149,0.128,0.0165,19.016,9.74,-37.7,-27.19,208.69,-25.93,-5.39,2,1006.02,32.616,,,,NaN,,,,,0 / 18,905,2018-04-26 01:05:56:239,,,
0.4684,4.1677,8.7454,0.5873,4.0436,8.9186,-0.1577,-0.2535,0.1349,0.0647,-0.158,-0.0208,19.016,11.27,-36.07,-28.2,210.11,-24.17,-3.22,2,1006.02,32.616,,,,NaN,,,,,0 / 18,1004,2018-04-26 01:05:56:338,,,
1.4413,4.8215,9.4651,0.6234,4.0843,8.8975,-0.5833,-0.5917,-0.7932,0.0131,0.205,-0.1497,19.016,11.81,-36.35,-28.71,213.64,-24.6,-4.01,2,1006.02,32.616,,,,NaN,,,,,0 / 18,1104,2018-04-26 01:05:56:438,,,
0.4541,4.5289,9.0225,0.4412,4.2245,8.8428,-0.2746,-0.613,-0.1449,0.1444,0.0175,-0.1575,19.016,14.28,-37.23,-28.84,216.02,-25.51,-2.86,2,1006.02,37.46,,,,NaN,,,,,0 / 18,1204,2018-04-26 01:05:56:538,,,
0.6582,4.8058,9.1005,0.3468,4.3294,8.7961,-0.1964,-0.8489,0.3509,0.239,0.1771,0.1124,19.016,14.96,-35.62,-29.86,219.91,-26.19,-2.26,2,1006.02,37.46,,,,NaN,,,,,0 / 18,1304,2018-04-26 01:05:56:638,,,
0.9077,5.22,8.6411,0.3422,4.7088,8.5992,-0.5596,-0.0693,0.6164,0.3574,0.2377,0.4679,19.016,15.58,-35.96,-29.65,224.47,-28.69,-2.28,2,1006.02,37.46,,,,NaN,,,,,0 / 18,1405,2018-04-26 01:05:56:739,,,
0.3669,5.1826,8.2681,0.5736,5.6294,8.0135,-0.3229,-1.0697,-0.0958,0.9722,0.0877,0.3441,19.016,14.27,-39.15,-27,218.82,-31.9,-3.26,2,1006.02,25.153,,,,NaN,,,,,0 / 18,1505,2018-04-26 01:05:56:839,,,
0.7465,6.9116,7.8806,0.59,5.7576,7.9207,-0.1862,-0.04,0.1306,-0.1499,0.1415,-0.6513,19.016,13.24,-38.98,-25.02,219.08,-35.02,-4.09,2,1006.01,25.153,,,,NaN,,,,,0 / 18,1605,2018-04-26 01:05:56:939,,,
0.5484,5.7317,7.9382,0.0307,5.6355,8.0297,-0.2797,0.9188,0.1562,-0.1269,0.1217,-0.5643,19.016,16.34,-37.91,-24.68,224.73,-35.23,-1.7,2,1006.01,25.153,,,,NaN,,,,,0 / 18,1704,2018-04-26 01:05:57:038,,,
-0.0055,5.0346,8.2585,-0.0547,5.6503,8.0192,-0.1739,0.419,-0.1947,-0.0546,-0.1825,-0.3958,19.016,18.78,-37.44,-22.89,228.07,-35.17,0.39,2,1006.02,25.153,,,,NaN,,,,,0 / 18,1804,2018-04-26 01:05:57:138,,,
-0.033,5.5186,8.2717,-0.2101,5.3208,8.239,-0.4429,0.5395,-0.2873,-0.3362,-0.4468,-0.9398,19.016,19.46,-34.7,-27.2,231.61,-32.85,1.46,2,1006.02,25.442,30.453472,-84.31871,105.78,NaN,,0,82.99355,,0 / 18,1905,2018-04-26 01:05:57:239,,,
-0.4341,4.4422,8.6495,-0.2301,4.4647,8.7321,0.0191,0.9119,0.1456,-0.7833,-0.506,-0.9729,19.016,20.52,-31.56,-28.85,236.68,-29.56,1.72,2,1006.03,25.442,30.453472,-84.31871,105.78,NaN,,0,82.99355,,0 / 18,2005,2018-04-26 01:05:57:339,,,
-0.1858,3.6295,8.713,-0.0289,4.381,8.7774,-0.1385,0.5254,0.236,0.0471,-0.7935,-1.1191,19.016,21.6,-27.49,-31.28,244.85,-26.52,0.19,2,1006.03,25.442,30.453472,-84.31871,105.78,NaN,,0,82.99355,,0 / 18,2105,2018-04-26 01:05:57:439,,,
0.2965,3.7198,8.6891,0.1838,4.5172,8.7061,-0.4533,0.4164,0.0313,0.1333,-0.9857,-1.6545,26.411,22.4,-24.78,-33.65,252.46,-26.84,-0.43,2,1006.03,27.16,30.453472,-84.31871,105.78,NaN,,0,82.99355,,0 / 18,2205,2018-04-26 01:05:57:539,,,
0.6988,4.6192,8.8258,0.3256,4.5308,8.695,-0.4107,-0.5076,0.4452,-0.1785,-1.0621,-1.9661,26.411,22.62,-19.61,-35.06,265.33,-27.51,-2.14,2,1006.03,27.16,30.453472,-84.31871,105.78,NaN,,0,82.99355,,0 / 18,2304,2018-04-26 01:05:57:638,,,
0.6713,4.9696,8.382,0.1438,4.4396,8.7467,-0.7373,-0.6783,0.847,-0.1647,-0.6682,-1.7162,26.411,22.5,-16.81,-36.93,273.04,-26.96,-1.81,2,1006.02,27.16,30.453472,-84.31871,105.78,NaN,,0,82.99355,,0 / 18,2405,2018-04-26 01:05:57:739,,,
-0.2156,7.7194,7.4021,0.0391,3.8463,9.0245,-1.1289,-1.6417,0.6615,-0.9628,-0.1522,-0.2177,26.411,23.62,-13.71,-39.24,282.52,-27.44,-0.63,2,1006.02,45.646,30.453472,-84.31871,105.78,NaN,,0,82.99355,,0 / 18,2504,2018-04-26 01:05:57:838,,,
0.9698,2.5472,7.5304,0.0368,3.1004,9.3071,1.1696,0.1791,-0.3008,-1.2827,0.0909,0.011,26.411,22.3,-7.67,-38.76,282,-18.42,-0.23,2,1006.02,45.646,30.453472,-84.31871,105.78,NaN,,0,82.99355,,0 / 18,2605,2018-04-26 01:05:57:939,,,
-0.4389,3.1455,9.8621,0.0112,3.4606,9.1793,-2.0634,0.3371,0.0485,0.7498,0.0308,-0.4889,26.411,22.36,-6.39,-39.29,284.86,-17.32,-0.15,2,1006.03,45.646,30.453472,-84.31871,105.78,NaN,,0,82.99355,,0 / 18,2704,2018-04-26 01:05:58:038,,,
2.0214,3.0901,9.2444,0.2509,3.2112,9.2661,-1.4282,0.7793,1.3632,-1.1054,-1.4461,-1.0163,26.411,21.86,-6.97,-39.67,285.22,-19.11,-1.55,2,1006.03,31.467,30.453472,-84.31871,105.78,NaN,,0,82.99355,,0 / 18,2805,2018-04-26 01:05:58:139,,,
2.3545,1.0518,6.7304,2.9779,2.6208,8.9722,1.6712,1.6596,5.8997,-0.2702,-2.9446,-1.5087,26.411,10.48,-1.69,-44.24,289.76,-15.5,-18.36,2,1006.03,31.467,30.453472,-84.31871,105.78,NaN,,0,82.99355,,0 / 18,2905,2018-04-26 01:05:58:239,,,
0.2965,-0.4026,3.8673,5.9991,0.9451,7.7041,0.5773,2.4627,-0.4084,-3.1431,-6.8415,1.9798,25.355,-16.73,13.21,-40.24,326.69,-5.53,-37.91,2,1006.03,31.467,30.453472,-84.31871,105.78,NaN,,0,82.99355,,0 / 18,3004,2018-04-26 01:05:58:338,,,
7.2332,-2.9971,6.3586,9.13,-3.4984,0.7998,-5.5706,-1.2908,-3.6957,-1.5445,-6.7713,3.3146,25.355,-28.1,22.25,-28.44,321.73,8.41,-63.93,2,1006.03,31.467,30.453472,-84.31871,105.78,NaN,,0,82.99355,,0 / 18,3104,2018-04-26 01:05:58:438,,,
13.3368,-2.9538,1.7299,8.1895,-5.3954,0.238,-2.5832,-0.3057,-0.0895,0.3046,-0.1438,1.4471,25.355,-27.9,30.93,-20.62,304.15,28.71,-86.97,2,1006.03,31.95,30.453472,-84.31871,105.78,NaN,,0,82.99355,,0 / 18,3204,2018-04-26 01:05:58:538,,,
10.319,-5.1835,0.4285,7.6628,-6.1104,-0.4255,-4.0198,2.2601,-4.0139,1.6075,-0.746,1.3298,25.355,-26,33.48,-19.41,296.78,38.53,-93.18,2,1006.03,31.95,30.453472,-84.31871,105.78,NaN,,0,82.99355,,0 / 18,3305,2018-04-26 01:05:58:639,,,
11.4447,-7.8274,0.8759,7.041,-6.7458,1.0743,3.7368,1.3318,9.663,1.96,-0.0997,0.3925,25.355,-24.25,33.21,-21.58,289.9,42.47,-88.33,0,1006.04,31.95,30.453472,-84.31871,105.78,NaN,,0,82.99355,,0 / 18,3404,2018-04-26 01:05:58:738,,,
3.177,-8.167,-8.385,6.4965,-7.2448,1.2425,-0.5231,0.0783,0.8377,-0.1103,-0.7023,0.5701,25.355,-18.49,33.74,-24.93,286.82,47.61,-79.17,0,1006.05,42.875,30.453472,-84.31871,105.78,NaN,,0,82.99355,,0 / 18,3505,2018-04-26 01:05:58:839,,,
9.3402,-6.4609,6.1558,6.4986,-7.2263,1.336,1.1605,-1.4484,7.4685,1.9091,-0.8776,0.1207,25.355,-20.1,31.82,-27.71,277.44,47.45,-78.38,0,1006.05,42.875,30.453472,-84.31871,105.78,NaN,,0,82.99355,,0 / 18,3604,2018-04-26 01:05:58:938,,,
5.8676,-7.3627,0.7511,6.6907,-7.0207,1.4766,-0.252,-0.5881,1.7637,0.5876,0.1599,-0.2531,2.113,-21.79,29.55,-27.64,271.09,47.84,-79.94,0,1006.05,42.875,30.453472,-84.31871,105.78,NaN,,0,82.99355,,0 / 18,3705,2018-04-26 01:05:59:039,,,
5.864,-7.0954,1.7083,6.8944,-6.8214,1.4739,1.1653,-0.1726,-0.8422,0.7215,-0.6958,-0.4468,2.113,-22.95,27.35,-27.66,266.08,45.7,-77.55,0,1006.04,39.634,30.453472,-84.31871,105.78,NaN,,0,82.99355,,0 / 18,3804,2018-04-26 01:05:59:138,,,
5.7638,-6.6078,2.3284,7.0807,-6.6949,1.1303,0.1755,0.0372,-0.1224,-0.123,-0.2641,-0.0883,2.113,-24.95,27.13,-26.94,268.62,43.28,-79.65,0,1006.04,39.634,30.453472,-84.31871,105.78,NaN,,0,82.99355,,18-Jul,3905,2018-04-26 01:05:59:239,,,
6.3857,-6.7198,1.3821,7.0759,-6.6998,1.1313,-0.1727,-0.8333,0.2108,0.0036,0.0473,0.0628,2.113,-25.69,26.61,-27.22,268.16,43.08,-80.92,0,1006.05,39.634,30.453472,-84.31871,105.78,NaN,,0,82.99355,,18-Jul,4004,2018-04-26 01:05:59:338,,,
6.8333,-5.5881,0.8471,6.9488,-6.8866,0.7245,-0.9959,0.1672,-0.7911,-0.3027,-0.3503,0.2605,2.113,-25.42,28.72,-25.33,273.54,44.59,-84.05,0,1006.04,31.318,30.453472,-84.31871,105.78,NaN,,0,82.99355,,18-Jul,4104,2018-04-26 01:05:59:438,,,
7.2929,-8.48,0.1694,6.8068,-7.0626,0.1542,-0.2806,2.5063,-0.0094,-0.2764,-0.2973,0.2302,2.113,-26.07,28.88,-23.6,273.01,45.2,-87.27,0,1006.09,31.318,30.453472,-84.31871,105.78,NaN,,0,82.99355,,18-Jul,4204,2018-04-26 01:05:59:538,,,
7.0625,-7.1255,0.4237,6.775,-7.0942,0.0874,0.5092,-0.8853,-0.3474,0.0556,-0.2206,0.0517,2.113,-26.46,30.33,-23.01,274.3,46.32,-89.26,0,1006.09,31.318,30.453472,-84.31871,105.78,NaN,,0,82.99355,,18-Jul,4304,2018-04-26 01:05:59:638,,,
5.6933,-6.9546,-0.5227,6.4864,-7.3538,-0.2905,2.2949,-1.1599,0.4903,-0.257,-0.183,0.2399,0.71,-25.38,31.53,-21.69,277.88,48.56,-92.56,0,1006.1,31.318,30.453472,-84.31871,105.78,NaN,,0,82.99355,,18-Jul,4405,2018-04-26 01:05:59:739,,,
2.6517,-6.1371,0.0878,5.6178,-8.0236,-0.5463,-6.1952,0.6864,2.064,-0.4038,0.8182,2.3328,0.71,-24.95,34.11,-21.06,272.14,54.88,-95.55,0,1006.1,31.187,30.453472,-84.31871,105.78,NaN,,0,82.99355,,18-Jul,4504,2018-04-26 01:05:59:838,,,
5.0272,-10.0813,0.9491,4.4159,-8.7276,-0.7514,-0.5671,1.3661,-1.4955,-0.8729,0.4232,0.6253,0.71,-16.44,39.44,-19.04,286.35,61.68,-95.13,0,1006.14,31.187,30.453472,-84.31871,105.78,NaN,,0,82.99355,,18-Jul,4605,2018-04-26 01:05:59:939,,,
4.7097,-8.1898,-0.561,4.1455,-8.8692,-0.6227,-0.0415,-1.4306,-0.1237,0.1843,-0.5982,0.233,0.71,-15.26,39.68,-18.56,286.52,64.7,-98.54,0,1006.06,31.187,30.453472,-84.31871,105.78,NaN,,0,82.99355,,18-Jul,4704,2018-04-26 01:06:00:038,,,
3.7081,-7.5602,-0.4471,3.9815,-8.9349,-0.7422,-0.0393,0.2688,0.1635,0.1271,-0.5217,0.0234,0.71,-15.75,39.97,-19.02,283.93,65.62,-100.56,0,1006.03,56.828,30.453472,-84.31871,105.78,NaN,,0,82.99355,,18-Jul,4804,2018-04-26 01:06:00:138,,,
3.9982,-11.3719,-0.4447,3.773,-9.024,-0.754,0.8934,0.4624,1.3682,-0.0646,0.1205,0.1403,0.71,-15.74,39.87,-19.02,282.73,66.56,-101.24,0,1006.03,56.828,30.453472,-84.31871,105.78,NaN,,0,82.99355,,0 / 18,4905,2018-04-26 01:06:00:239,,,
3.5506,-9.8188,-0.681,3.6747,-9.0659,-0.7361,0.106,-0.936,0.7659,-0.1727,0.33,0.138,0.71,-14.34,39.38,-18.8,284.83,67.54,-101.33,0,1006.07,56.828,30.453472,-84.31871,105.78,NaN,,0,82.99355,,0 / 18,5004,2018-04-26 01:06:00:338,,,
3.2832,-9.283,-1.1944,3.5446,-9.1117,-0.8058,-0.0586,-0.037,0.4732,-0.2117,0.453,0.1551,0.71,-12.57,40.52,-18.69,288.9,68.25,-102.81,0,1006.07,55.379,30.453472,-84.31871,105.78,NaN,,0,82.99355,,0 / 18,5105,2018-04-26 01:06:00:439,,,
3.5351,-9.0374,-1.2555,3.5075,-9.119,-0.8822,-0.1965,0.0011,0.5063,-0.2479,0.4353,0.11,0.71,-11.94,41.2,-18.31,292.35,68.37,-104.12,0,1006.09,55.379,30.453472,-84.31871,105.78,NaN,,0,82.99355,,0 / 18,5204,2018-04-26 01:06:00:538,,,
3.4336,-9.0892,-1.3215,3.4459,-9.1326,-0.9784,-0.0341,-0.2122,0.4063,-0.2146,0.3599,0.0909,0.71,-10.38,42.01,-19.13,297.65,68.51,-104.98,0,1006.11,55.379,30.453472,-84.31871,105.78,NaN,,0,82.99355,,0 / 18,5305,2018-04-26 01:06:00:639,,,
3.8049,-8.8713,-0.8969,3.4725,-9.1288,-0.9185,-1.1632,-0.5406,-0.2635,-0.0533,0.3495,0.0104,0.71,-9.6,42.35,-17.42,299.38,68.6,-106.07,0,1006.11,39.949,30.453472,-84.31871,105.78,NaN,,0,82.99355,,0 / 18,5404,2018-04-26 01:06:00:738,,,
5.4259,-7.8359,-0.6522,3.4876,-9.1365,-0.773,-1.5848,-0.1827,0.0413,0.3565,-0.1774,0.0086,0.71,-9.58,42.16,-18.55,295.84,68.65,-102.5,0,1006.11,39.949,30.453472,-84.31871,105.78,NaN,,0,82.99355,,0 / 18,5505,2018-04-26 01:06:00:839,,,
4.736,-9.7911,-0.5562,3.5571,-9.1278,-0.5163,-0.662,-0.5509,0.0674,0.1783,0.0321,-0.0768,0.71,-9.83,41.53,-19.84,293.5,68.71,-100.03,0,1006.14,39.949,30.453472,-84.31871,105.78,NaN,,0,82.99355,,0 / 18,5604,2018-04-26 01:06:00:938,,,
4.2764,-8.2958,-0.5946,3.5587,-9.1337,-0.3841,-0.8076,-1.1671,0.5267,0.266,0.0355,0.1098,0.71,-8.83,41.42,-19.17,293.24,68.6,-96.16,0,1006.14,39.949,30.453472,-84.31871,105.78,NaN,,0,82.99355,,0 / 18,5705,2018-04-26 01:06:01:039,,,
4.3707,-7.7636,-0.9844,3.2339,-9.2609,-0.1198,-2.2411,-0.9863,0.7397,0.213,0.0692,0.3835,0.71,-9.49,40.56,-21.04,285.14,70.74,-92.12,0,1006.13,51.052,30.453472,-84.31871,105.78,NaN,,0,82.99355,,0 / 18,5804,2018-04-26 01:06:01:138,,,
5.9977,-8.9411,-1.0648,2.8546,-9.3842,-0.1581,-2.6421,-0.1478,1.2977,-0.0064,-0.157,0.3505,0.71,-7.08,39.77,-20.7,286.47,72.08,-91.79,0,1006.13,51.052,30.453472,-84.31871,105.78,NaN,,0,82.99355,,0 / 18,5905,2018-04-26 01:06:01:239,,,
5.3973,-10.109,-0.9209,2.8507,-9.3828,-0.2676,-1.5543,1.1045,0.0405,-0.04,-0.3711,0.1537,0.71,-6.89,40.88,-20.27,287.25,73.06,-93.17,0,1006.15,51.052,30.453472,-84.31871,105.78,NaN,,0,82.99355,,0 / 18,6004,2018-04-26 01:06:01:338,,,
2.629,-9.1735,1.111,3.7848,-8.9845,-1.0911,2.7915,3.4421,0.3634,-0.6244,-0.7828,-1.0108,0.71,-11.54,41.51,-19.62,283.45,70.53,-97.08,0,1005.97,40.368,30.453472,-84.31871,105.78,NaN,,0,82.99355,,0 / 18,6105,2018-04-26 01:06:01:439,,,
3.3978,-10.5159,-2.335,4.2394,-8.6649,-1.7842,-0.0479,-0.1579,-0.5574,-0.8172,-0.4286,-0.6523,0.71,-15.91,39.86,-14.22,298.84,62.04,-112.82,0,1005.96,40.368,30.453472,-84.31871,105.78,NaN,,0,82.99355,,0 / 18,6205,2018-04-26 01:06:01:539,,,
4.3456,-8.4354,-1.3239,4.5993,-8.2347,-2.6969,1.2588,-1.3956,-0.009,-0.2967,-0.9889,-0.5255,0.71,-18.05,41.42,-12.08,302.43,59.08,-117.01,0,1005.96,40.368,30.453472,-84.31871,105.78,NaN,,0,82.99355,,0 / 18,6304,2018-04-26 01:06:01:638,,,
2.4452,-6.1166,-2.7608,4.6011,-8.1475,-2.9469,1.9297,-2.9289,0.1693,0.0255,-0.1378,0.0617,0.71,-20.11,40.35,-8.83,303.86,56.15,-122.64,0,1005.95,55.584,30.453472,-84.31871,105.78,NaN,,0,82.99355,,0 / 18,6405,2018-04-26 01:06:01:739,,,Out
3.9732,-5.8445,-3.6184,4.6044,-8.2148,-2.7482,-1.4,-0.4343,1.6793,0.2126,0.193,0.0259,0.71,-20.37,40.33,-10.26,302.01,56.87,-120.83,0,1005.95,55.584,30.453472,-84.31871,105.78,NaN,,0,82.99355,,0 / 18,6504,2018-04-26 01:06:01:838,,,Out
4.9819,-9.1939,-4.5792,4.5211,-8.2718,-2.7153,0.6628,2.3304,5.309,0.2027,-0.1596,0.0378,0.71,-20.26,39.22,-11.76,299.65,57.48,-120.99,0,1006.01,55.584,30.453472,-84.31871,105.78,NaN,,0,82.99355,,0 / 18,6605,2018-04-26 01:06:01:939,,,Out
5.1705,-16.7753,-6.5223,4.4453,-8.2093,-3.0137,-0.1152,4.8186,-4.1472,-0.507,1.2467,0.4924,0.71,-20.54,40.27,-8.78,301.05,56.81,-124.14,0,1006.04,44.935,30.453472,-84.31871,105.78,NaN,,0,82.99355,,0 / 18,6704,2018-04-26 01:06:02:038,,,Out
4.9067,-8.0947,-0.1484,4.3392,-8.3707,-2.709,-2.9372,1.566,-3.1734,0.0087,0.4366,0.1755,0.71,-18.08,40.91,-8.52,308.94,56.81,-123.93,0,1006.04,44.935,30.453472,-84.31871,105.78,NaN,,0,82.99355,,0 / 18,6805,2018-04-26 01:06:02:139,,,Out
5.0511,-7.2447,-1.0984,3.9986,-8.6453,-2.3465,0.5245,-1.2023,-1.1162,0.4914,0.4675,0.5073,0.71,-14.95,42.74,-11.64,308.5,61.8,-120.41,0,1006.04,44.935,30.453472,-84.31871,105.78,NaN,,0,82.99355,,0 / 18,6904,2018-04-26 01:06:02:238,,,Out
3.5757,-8.592,-0.5598,3.9171,-8.8665,-1.5089,-0.4138,-1.089,0.8928,0.5589,0.526,0.0278,0.71,-13.62,41.28,-14.46,303.61,63.74,-116.37,0,1006.08,44.935,30.453472,-84.31871,105.78,NaN,,0,82.99355,,0 / 18,7005,2018-04-26 01:06:02:339,,,Out
4.2059,-7.6962,-2.0292,3.4537,-9.1253,-1.0186,-1.3117,-1.5385,1.0237,0.3814,0.1993,0.4856,0.71,-11.71,41.28,-17.54,298.7,66.17,-108.69,0,1006.08,51.962,30.453472,-84.31871,105.78,NaN,,0,82.99355,,0 / 18,7104,2018-04-26 01:06:02:438,,,Out
5.0248,-7.4988,-2.1323,3.0861,-9.2764,-0.813,-2.5255,-0.858,0.8107,0.3933,-0.0153,0.7014,0.71,-8.75,41.56,-18.4,296.38,71.01,-104.76,0,1006.07,51.962,30.453472,-84.31871,105.78,NaN,,0,82.99355,,0 / 18,7204,2018-04-26 01:06:02:538,,,Out
5.2791,-11.8595,-0.0765,3.2739,-9.2333,-0.5147,0.0244,3.5833,-2.6518,0.3703,-0.2513,-0.2764,0.71,-8.4,40.76,-20.71,293.33,70.26,-98.93,0,1006.1,51.962,30.453472,-84.31871,105.78,NaN,,0,82.99355,,0 / 18,7304,2018-04-26 01:06:02:638,,,Out
3.1543,-12.8624,2.2517,3.7993,-8.9922,-0.971,1.0823,2.0298,0.1902,-1.2236,-0.0843,-0.8519,0.71,-11.83,39.98,-18.89,294.28,66.44,-104.34,0,1006.1,52.574,30.453472,-84.31871,105.78,NaN,,0,82.99355,,0 / 18,7405,2018-04-26 01:06:02:739,,,Out
5.7518,-9.5467,-1.8288,5.3319,-7.9622,-2.0999,0.0662,0.1372,-1.9362,-1.1527,0.207,-1.503,0.71,-17.34,41.26,-14.12,296.87,62.07,-111.46,0,1006.1,52.574,30.453472,-84.31871,105.78,NaN,,0,82.99355,,0 / 18,7504,2018-04-26 01:06:02:838,,,Out
7.318,-8.9218,-0.4111,6.132,-7.5007,-1.541,2.3337,0.9051,0.3976,0.4996,0.1876,-0.4637,0.71,-22.76,36.83,-14.88,297.33,49.18,-107.23,0,1005.93,52.574,30.453472,-84.31871,105.78,NaN,,0,82.99355,,0 / 18,7604,2018-04-26 01:06:02:938,,,Out
4.0054,-10.3281,-1.8468,5.8667,-7.8285,-0.7304,1.6749,-1.1701,8.2075,1.3491,0.1069,0.5046,0.71,-21.74,36.26,-17.68,294.17,49.87,-104.11,0,1005.93,56.733,30.453472,-84.31871,105.78,NaN,,0,82.99355,,0 / 18,7705,2018-04-26 01:06:03:039,,,Out
4.0412,-6.7896,-8.331,5.7034,-7.8209,1.5941,-2.6065,1.1412,5.3977,2.0975,0.7008,0.1703,0.71,-18.85,33.2,-25.21,276.21,54.65,-87.19,0,1005.91,56.733,30.453472,-84.31871,105.78,NaN,,0,82.99355,,0 / 18,7804,2018-04-26 01:06:03:138,,,Out
16.4046,-0.3448,0.9407,7.0175,-6.5983,1.8583,-8.6816,-6.1603,0.5359,-1.1568,1.9168,-5.1088,0.71,-21.48,25.88,-30.17,271.02,42.27,-75.17,0,1005.93,56.733,30.453472,-84.31871,105.78,NaN,,0,82.99355,,0 / 18,7904,2018-04-26 01:06:03:238,,,Out
13.3678,-2.4902,3.8253,8.9177,-1.1604,3.9196,-0.1898,4.3429,-2.6346,-2.0161,2.4554,-5.7688,0.71,-25.7,16.07,-33.95,299,6.79,-66.27,2,1005.93,54.252,30.453472,-84.31871,105.78,NaN,,0,82.99355,,0 / 18,8004,2018-04-26 01:06:03:338,,,Out
9.0465,-5.5447,6.6716,7.2655,1.0075,6.5142,-1.2842,4.1091,-1.0791,-0.1219,4.3335,-3.6534,0.71,-19.31,12.96,-39.22,316.21,-5.89,-48.12,2,1005.97,54.252,30.453472,-84.31871,105.78,NaN,,0,82.99355,,0 / 18,8104,2018-04-26 01:06:03:438,,,Out
6.9897,-1.0563,9.2324,1.9783,2.7101,9.2183,-1.482,4.2381,1.4786,0.251,4.8544,-2.1131,0.71,2.08,7.83,-44.22,330.1,-16.04,-12.11,2,1005.99,54.252,30.453472,-84.31871,105.78,NaN,,0,82.99355,,0 / 18,8204,2018-04-26 01:06:03:538,,,Out
2.5753,-1.1201,7.4045,0.131,3.5624,9.1394,-1.0802,1.6755,0.2748,0.8834,0.8673,-0.2539,0.71,13.45,6.89,-43.01,323.44,-16.85,-1.52,2,1005.99,54.252,30.453472,-84.31871,105.78,NaN,,0,82.99355,,0 / 18,8304,2018-04-26 01:06:03:638,,,Out
0.226,2.2691,8.8378,0.7963,4.7965,8.5203,-0.5953,0.8714,1.4581,2.3774,-0.9145,0.2342,0.71,12.48,2.08,-43.35,324.08,-21.29,-0.82,2,1005.99,48.509,30.453472,-84.31871,105.78,NaN,,0,82.99355,,0 / 18,8405,2018-04-26 01:06:03:739,,,Out
1.5881,4.4711,6.7939,0.9385,6.3171,7.4465,-0.3985,0.1194,1.2553,1.3365,0.2381,0.095,0.71,8.41,-9.05,-44.5,321.79,-36.91,-8.79,2,1005.99,48.509,30.453472,-84.31871,105.78,NaN,,0,82.99355,,0 / 18,8504,2018-04-26 01:06:03:838,,,Out
0.8647,5.521,6.6476,0.8969,5.9492,7.7484,-0.9743,1.777,-2.78,-0.6476,-0.1957,0.4584,0.71,10.23,-8.5,-43.18,321.71,-37.33,-6.6,2,1005.98,48.509,30.453472,-84.31871,105.78,NaN,,0,82.99355,,0 / 18,8605,2018-04-26 01:06:03:939,,,Out
1.9629,3.9088,10.8492,1.7401,6.1505,7.4417,-0.2881,0.6583,0.2558,0.7854,-0.5658,0.5956,24.298,8.55,-10.97,-42.96,311.47,-38.83,-13.16,2,1005.99,27.327,30.453472,-84.31871,105.78,NaN,,0,82.99355,,0 / 18,8704,2018-04-26 01:06:04:038,,,Out
2.8117,4.9635,7.2605,2.5864,6.6507,6.7316,0.1041,2.4387,4.8452,0.6888,-1.064,-0.172,24.298,5.03,-11.96,-44.43,314.66,-40.26,-16.62,2,1005.98,27.327,30.453472,-84.31871,105.78,NaN,,0,82.99355,,0 / 18,8805,2018-04-26 01:06:04:139,,,Out
2.3879,4.1677,2.0249,3.434,6.4866,6.5091,2.5922,4.9002,6.6408,-0.0143,-1.4296,-0.0105,24.298,-1.25,-13.94,-44.49,308.34,-41.39,-27.81,2,1005.98,27.327,30.453472,-84.31871,105.78,NaN,,0,82.99355,,0 / 18,8904,2018-04-26 01:06:04:238,,,Out
2.7723,-0.5663,0.4429,7.8821,3.3303,4.7976,0.9108,5.6374,3.6394,-1.089,-3.4165,3.6047,24.298,-20.27,-5.23,-40.49,288.94,-19.85,-58.67,2,1005.98,29.402,30.453472,-84.31871,105.78,NaN,,0,82.99355,,0 / 18,9005,2018-04-26 01:06:04:339,,,Out
8.4126,-1.4874,2.2133,9.1718,0.2598,3.471,-7.6548,4.4363,-2.9612,-1.7527,-3.395,4.1703,24.298,-30.81,16.12,-30.47,314.93,-1.52,-69.27,2,1005.98,29.402,30.453472,-84.31871,105.78,NaN,,0,82.99355,,0 / 18,9104,2018-04-26 01:06:04:438,,,Out
19.4331,-6.5585,6.8035,8.7274,-4.4745,0.2184,-9.6445,2.7049,-5.5881,-1.4457,-1.976,3.8628,24.298,-30.97,26.81,-22.46,314.9,14.68,-82.3,0,1005.99,29.402,30.453472,-84.31871,105.78,NaN,,0,82.99355,,0 / 18,9204,2018-04-26 01:06:04:538,,,Out
12.1908,-6.355,4.2511,6.2748,-7.1219,-2.4782,-6.167,-0.5164,-3.6249,1.7423,-4.9303,2.459,24.298,-23.89,37.81,-11.76,317.19,37.08,-100.29,0,1005.99,45.329,30.453472,-84.31871,105.78,NaN,,0,82.99355,,0 / 18,9304,2018-04-26 01:06:04:638,,,Out
12.1741,-5.4713,1.1014,6.269,-7.5072,-0.7605,-3.1409,0.0634,0.0065,3.1902,-1.3284,0.7177,16.903,-21.62,35,-19.8,288.8,49.93,-96.92,0,1005.99,45.329,30.453472,-84.31871,105.78,NaN,,0,82.99355,,0 / 18,9404,2018-04-26 01:06:04:738,,,Out
6.1422,-7.7143,-6.3927,6.5081,-7.2969,0.7977,1.2163,1.2825,-1.4797,0.5142,0.2148,-0.3018,16.903,-19.06,33.35,-23.98,284.23,49.76,-86.77,0,1005.99,45.329,30.453472,-84.31871,105.78,NaN,,0,82.99355,,0 / 18,9505,2018-04-26 01:06:04:839,,,
6.6244,-6.4645,1.7683,6.3833,-7.4168,0.6931,-0.2873,-0.9705,-0.919,-0.277,-0.5746,0.3905,16.903,-20.35,31.71,-26.8,278.54,49.12,-83.8,0,1005.99,45.329,30.453472,-84.31871,105.78,NaN,,0,82.99355,,0 / 18,9605,2018-04-26 01:06:04:939,,,
9.2101,-6.066,-0.5419,6.4197,-7.3602,0.9224,-1.2393,0.8417,-3.0023,-0.2313,0.929,-0.3222,16.903,-20.19,33.16,-24.93,281.1,48.61,-81.82,0,1005.99,49.059,30.453472,-84.31871,105.78,NaN,,0,82.99355,,0 / 18,9705,2018-04-26 01:06:05:039,,,
6.2854,-7.7865,0.648,6.4856,-7.31,0.858,3.3023,0.8189,0.4601,0.536,-1.5829,-0.5296,16.903,-22.35,31.18,-25.27,275.16,48.17,-82.46,0,1006,49.059,30.453472,-84.31871,105.78,NaN,,0,82.99355,,0 / 18,9805,2018-04-26 01:06:05:139,,,
5.149,-6.2105,0.9575,7.1909,-6.6434,0.6265,2.4233,-0.3188,0.3542,0.2948,-0.1618,-0.8427,16.903,-23.55,29.8,-24.96,275.51,45.99,-85.48,0,1006,49.059,30.453472,-84.31871,105.78,NaN,,0,82.99355,,0 / 18,9905,2018-04-26 01:06:05:239,,,
6.3833,-6.4862,1.1254,7.8143,-5.9302,0.0765,0.2514,-1.0333,0.9695,-0.4164,-0.352,-0.8055,16.903,-27.17,27.71,-23.75,278.18,40.11,-87.06,0,1006,39.899,30.453472,-84.31871,105.78,NaN,,0,82.99355,,0 / 18,10004,2018-04-26 01:06:05:338,,,
6.0813,-4.8031,-0.7422,7.9941,-5.6848,-0.1167,-0.7593,-1.4257,3.1822,-1.2272,0.2826,-0.4487,0.237,-28.51,28.25,-21.11,286.13,35.41,-90.84,0,1006,39.899,30.453472,-84.31871,105.78,NaN,,0,82.99355,,0 / 18,10105,2018-04-26 01:06:05:439,,,
6.6221,-4.8223,-2.3542,8.2601,-5.2564,-0.614,-0.9911,0.4808,2.1897,-0.6042,-0.05,-0.3145,0.237,-29.55,28.59,-19.48,291.45,33.68,-93.17,0,1006.04,39.899,30.453472,-84.31871,105.78,NaN,,0,82.99355,,0 / 18,10205,2018-04-26 01:06:05:539,,,
9.4261,-5.6639,-2.2523,8.381,-5.042,-0.7571,-0.9009,1.0999,0.0265,-0.373,-0.2381,-0.3647,0.237,-30.55,28.32,-19.05,292.58,30.93,-95.16,0,1006.04,34.079,30.453472,-84.31871,105.78,NaN,,0,82.99355,,0 / 18,10305,2018-04-26 01:06:05:639,,,
4.9592,-10.4473,0.8183,7.1863,-6.5251,-1.4196,3.3743,4.8939,-3.5342,-0.9702,0.0162,2.078,0.237,-27.44,33.49,-15.66,293.47,41.69,-101.17,0,1006,34.079,30.453472,-84.31871,105.78,NaN,,0,82.99355,,0 / 18,10404,2018-04-26 01:06:05:738,,,
4.0281,-11.1588,2.3296,5.0515,-8.2431,-1.6639,0.9886,0.1516,-1.3087,-0.8257,1.1957,2.1917,0.237,-12.86,42.89,-11.44,323.93,51.35,-106.97,0,1006,34.079,30.453472,-84.31871,105.78,NaN,,0,82.99355,,0 / 18,10505,2018-04-26 01:06:05:839,,,
3.2545,-10.3221,0.9958,4.6356,-8.4707,-1.7306,-0.4903,-0.2401,-1.8308,-0.9557,1.5528,1.192,0.237,-7.98,44.3,-8.92,330.88,57.17,-108.23,0,1005.98,48.277,30.453472,-84.31871,105.78,NaN,,0,82.99355,,0 / 18,10605,2018-04-26 01:06:05:939,,,
4.81,-8.2199,1.3533,4.4073,-8.5205,-2.0527,-1.0159,1.3011,-1.6464,-1.0377,1.3701,0.423,0.237,-1.82,45.7,-6.23,344.2,61.3,-110.88,0,1006,48.277,30.453472,-84.31871,105.78,NaN,,0,82.99355,,0 / 18,10704,2018-04-26 01:06:06:038,,,
4.9759,-7.8238,-1.523,4.4369,-8.3078,-2.744,0.064,-0.0252,-1.3129,-1.5333,1.3098,0.305,0.946,-1.06,47.17,2.8,5.05,57.87,-121.73,0,1006.29,48.277,30.453472,-84.31871,105.78,NaN,,0,82.99355,,0 / 18,10804,2018-04-26 01:06:06:138,,,
5.3913,-9.4468,-1.2063,4.7088,-8.1119,-2.8741,-0.275,0.8346,-1.6034,-1.1269,2.0042,0.4366,0.946,-0.01,45.9,5.8,12.3,56.11,-123.75,0,1006.29,48.277,30.453472,-84.31871,105.78,NaN,,0,82.99355,,0 / 18,10905,2018-04-26 01:06:06:239,,,
3.2271,-9.4251,-1.932,4.8001,-8.1599,-2.5711,2.4795,1.1369,-1.0051,-0.7559,1.8661,0.5588,0.946,0.79,46.65,7.93,17.63,56.28,-118.17,0,1006.1,47.779,30.453472,-84.31871,105.78,NaN,,0,82.99355,,0 / 18,11004,2018-04-26 01:06:06:338,,,
4.453,-10.8109,-2.1023,4.8217,-8.2284,-2.2982,-1.2257,0.4387,0.4216,-1.0841,2.3774,0.6124,0.946,0.77,44.83,13.86,32.89,57.01,-115.48,0,1006.1,47.779,30.453472,-84.31871,105.78,NaN,,0,82.99355,,0 / 18,11105,2018-04-26 01:06:06:439,,,
3.6736,-8.0056,-2.5221,3.958,-8.7733,-1.8973,0.67,-1.2036,-0.0774,-0.4914,2.0724,1.3888,0.946,2.68,42.88,18.29,50.02,63.42,-115.61,0,1006.08,47.779,30.453472,-84.31871,105.78,NaN,,0,82.99355,,0 / 18,11204,2018-04-26 01:06:06:538,,,
3.7893,-7.3338,-2.1839,3.6245,-8.9626,-1.6643,-1.0398,-1.1596,-0.052,-0.5752,2.6179,0.7845,0.946,3.59,42.51,19.62,53.3,63.42,-115.61,0,1006.02,48.953,30.453472,-84.31871,105.78,NaN,,0,82.99355,,0 / 18,11305,2018-04-26 01:06:06:639,,,
4.9723,-7.8636,-1.2999,3.34,-9.1704,-0.9921,0.7395,-0.2084,-0.2836,-0.4023,2.7092,0.6528,0.946,0.73,40.6,23.81,69.44,67.41,-111.41,0,1006.03,48.953,30.453472,-84.31871,105.78,NaN,,0,82.99355,,0 / 18,11404,2018-04-26 01:06:06:738,,,
3.4288,-8.5378,-0.5299,3.2977,-9.1987,-0.8636,-2.1365,2.4689,1.0187,-0.8266,2.3356,0.1645,0.946,-5.14,38.04,26.61,84.81,69.67,-104.68,0,1006.03,48.953,30.453472,-84.31871,105.78,NaN,,0,82.99355,,0 / 18,11504,2018-04-26 01:06:06:838,,,
6.8465,-11.1251,-0.5442,3.5077,-9.0924,-1.1228,-0.9067,-2.2476,1.32,-0.6786,1.1969,-0.1031,0.946,-7.95,37.65,27.57,91.23,69.18,-105.11,0,1006.02,47.611,30.453472,-84.31871,105.78,NaN,,0,82.99355,,0 / 18,11605,2018-04-26 01:06:06:939,,,
3.9433,-8.132,-2.0651,3.5704,-9.0687,-1.1167,-0.6201,-0.237,1.0401,0.037,0.2404,-0.0023,0.946,-9.6,36.7,28.43,96.79,67.75,-108,0,1006.02,47.611,30.453472,-84.31871,105.78,NaN,,0,82.99355,,0 / 18,11704,2018-04-26 01:06:07:038,,,
3.7607,-9.3782,-1.7017,3.7159,-9.0082,-1.1312,0.3096,-0.1567,-0.0825,-0.2674,0.6255,-0.184,0.946,-11.09,35.75,28.54,97.35,66.67,-106.93,0,1006,47.611,30.453472,-84.31871,105.78,NaN,,0,82.99355,,0 / 18,11805,2018-04-26 01:06:07:139,,,
3.9815,-8.7966,-1.4654,3.9595,-8.9019,-1.1466,-0.0583,-0.186,0.2386,-0.307,0.6598,-0.1112,0.946,-14.14,34.05,28.9,102.33,65.15,-106.15,0,1006.05,41.112,30.453472,-84.31871,105.78,NaN,,0,82.99355,,0 / 18,11905,2018-04-26 01:06:07:239,,,
4.0376,-8.8039,-1.018,4.076,-8.8573,-1.0815,-2.2846,-0.4355,-0.3148,-0.2362,0.4971,-0.0496,0.946,-14.93,33.48,28.67,103.08,64.54,-104.86,0,1006.05,41.112,30.453472,-84.31871,105.78,NaN,,0,82.99355,,0 / 18,12004,2018-04-26 01:06:07:338,,,
7.0506,-8.12,-0.8237,4.2816,-8.7614,-1.0685,-2.5819,-0.5118,0.0569,-0.0773,0.2307,-0.1007,0.946,-16.68,33.37,28.13,106.97,64.22,-104.91,0,1006.09,41.112,30.453472,-84.31871,105.78,NaN,,0,82.99355,,0 / 18,12104,2018-04-26 01:06:07:438,,,
4.9843,-8.5558,-0.621,4.5428,-8.6592,-0.7852,0.662,0.3542,-0.4902,0.0746,0.3894,-0.1523,0.946,-18.03,32.57,27.78,101.75,61.94,-101.48,0,1006.06,41.112,30.453472,-84.31871,105.78,NaN,,0,82.99355,,0 / 18,12205,2018-04-26 01:06:07:539,,,
3.8442,-9.029,-0.2432,4.4139,-8.7355,-0.6665,-1.1238,-0.8857,0.2929,-0.1344,0.6628,0.2545,0.946,-19.71,32.11,26.36,105.98,62.93,-98.59,0,1006.06,40.436,30.453472,-84.31871,105.78,NaN,,0,82.99355,,0 / 18,12304,2018-04-26 01:06:07:638,,,
5.3483,-8.1044,-0.8777,4.0446,-8.9281,-0.4076,-1.4873,-0.5743,0.7718,-0.0362,0.5747,0.3982,0.946,-19.81,33.13,27.2,104.93,64.06,-97.25,0,1006.1,40.436,30.453472,-84.31871,105.78,NaN,,0,82.99355,,0 / 18,12405,2018-04-26 01:06:07:739,,,
5.26,-8.5173,-0.9797,3.766,-9.054,-0.2782,-2.5989,-0.571,0.8298,-0.015,0.5156,0.561,0.946,-19.53,34.11,25.44,106.66,67.36,-94.23,0,1006.1,40.436,30.453472,-84.31871,105.78,NaN,,0,82.99355,,0 / 18,12504,2018-04-26 01:06:07:838,,,
6.5636,-8.3319,-1.2699,3.2337,-9.2604,-0.1579,-2.5457,0.147,1.202,-0.0217,0.3016,0.4978,0.946,-18.48,35.81,24.78,104.52,70.73,-92.79,0,1006.1,46.411,30.453472,-84.31871,105.78,NaN,,0,82.99355,,0 / 18,12605,2018-04-26 01:06:07:939,,,
5.4594,-10.2462,-1.0048,3.1426,-9.2921,-0.1282,0.8009,-0.7115,-1.1152,0.0945,-0.2046,-0.281,0.946,-18.2,35.74,24.99,104.92,71.3,-92.34,0,1006.14,46.411,30.453472,-84.31871,105.78,NaN,,0,82.99355,,0 / 18,12704,2018-04-26 01:06:08:038,,,
1.2192,-9.6322,0.4885,3.8076,-9.0229,-0.5696,2.4239,1.1467,-0.0799,-0.2446,-0.6633,-0.7092,0.946,-18.88,34.48,25.76,106.09,69.67,-92.89,0,1005.99,46.411,30.453472,-84.31871,105.78,NaN,,0,82.99355,,0 / 18,12805,2018-04-26 01:06:08:139,,,
2.2136,-10.8855,-1.3947,4.5252,-8.5234,-1.7635,-1.0865,0.3195,-0.5876,-0.7832,-0.5155,-0.7803,0.946,-20.93,30.19,29.35,119.04,63.59,-106.6,0,1005.99,49.444,30.453472,-84.31871,105.78,NaN,,0,82.99355,,0 / 18,12904,2018-04-26 01:06:08:238,,,
4.2071,-8.8255,-2.0651,4.5947,-8.3656,-2.2678,0.7338,-0.7356,-0.2314,-0.4599,-0.807,-0.381,0.946,-19.22,27.27,34.11,120.99,58.51,-116.27,0,1005.94,49.444,30.453472,-84.31871,105.78,NaN,,0,82.99355,,0 / 18,13005,2018-04-26 01:06:08:339,,,
3.5757,-6.8257,-2.3746,4.7086,-8.1279,-2.829,0.6365,-2.129,0.3429,-0.2431,-0.3852,-0.2129,0.946,-18.92,26.42,35.22,123.84,56.6,-119.89,0,1005.94,49.444,30.453472,-84.31871,105.78,NaN,,0,82.99355,,0 / 18,13104,2018-04-26 01:06:08:438,,,
5.1,-6.7776,-3.7168,4.7247,-8.1667,-2.6868,-1.1124,-1.4571,1.4873,0.1739,0.2303,-0.026,0.946,-18.81,27.5,34.79,122.1,56.35,-119.63,0,1005.94,46.551,30.453472,-84.31871,105.78,NaN,,0,82.99355,,0 / 18,13205,2018-04-26 01:06:08:539,,,
6.0359,-8.0899,-3.4613,4.9031,-8.0921,-2.5912,-0.9766,-0.0658,3.5883,0.0218,-0.0444,-0.2024,0.946,-19.71,26.17,34.18,122.09,55.58,-117.86,0,1005.98,46.551,30.453472,-84.31871,105.78,NaN,,0,82.99355,,0 / 18,13304,2018-04-26 01:06:08:638,,,
5.8223,-8.0562,-6.0737,4.6211,-8.1198,-2.9917,3.383,-2.4517,-0.0355,-0.2353,0.2303,0.4181,0.946,-18.84,25.4,34.99,125.26,54.6,-122.14,0,1006.05,46.551,30.453472,-84.31871,105.78,NaN,,0,82.99355,,0 / 18,13405,2018-04-26 01:06:08:739,,,
1.1822,-4.2083,-2.1587,4.6408,-8.1264,-2.9429,-1.00E-04,-0.2185,-2.2927,-0.3225,0.2953,0.1376,0.946,-18.87,24.94,35.19,127.39,55.93,-122.38,0,1006.05,46.551,30.453472,-84.31871,105.78,NaN,,0,82.99355,,0 / 18,13504,2018-04-26 01:06:08:838,,,
4.8207,-8.6823,-3.0235,4.4302,-8.4356,-2.3344,3.0025,-1.8099,-0.9305,0.0424,0.4903,0.3112,0.946,-18.36,27.6,33.11,123.15,58.54,-120.04,0,1006.15,50.215,30.453472,-84.31871,105.78,NaN,,0,82.99355,,0 / 18,13604,2018-04-26 01:06:08:938,,,
6.2902,-8.6377,-1.0756,4.5467,-8.4643,-1.9798,-0.9658,-1.4249,0.3294,0.3085,0.6252,0.2159,0.946,-22.19,27.36,31.2,126.31,59.63,-113.53,0,1006.15,50.215,30.453472,-84.31871,105.78,NaN,,0,82.99355,,0 / 18,13704,2018-04-26 01:06:09:038,,,
5.2624,-6.7908,-2.028,4.3282,-8.6852,-1.4389,-1.9217,-0.3986,0.4603,0.3898,0.1804,0.3046,0.946,-21.25,29.11,30.8,120.16,60.9,-110.55,0,1006.2,50.215,30.453472,-84.31871,105.78,NaN,,0,82.99355,,0 / 18,13804,2018-04-26 01:06:09:138,,,
6.5242,-8.1935,-1.7233,4.0182,-8.873,-1.166,-2.4985,-0.8057,0.7216,0.2033,0.0788,0.3456,0.946,-20.68,31.14,29.43,120.1,63.95,-107.76,0,1006.23,53.695,30.453472,-84.31871,105.78,NaN,,0,82.99355,,0 / 18,13904,2018-04-26 01:06:09:238,,,
5.6026,-10.7976,-0.97,4.2437,-8.773,-1.1231,0.4216,3.1861,-2.1937,0.1609,0.1068,-0.2119,0.946,-20.01,31.58,28.68,112.74,63.42,-104.82,0,1005.97,53.695,30.453472,-84.31871,105.78,NaN,,0,82.99355,,0 / 18,14005,2018-04-26 01:06:09:339,,,
3.7881,-11.9799,1.183,4.1909,-8.8103,-1.0255,0.8226,2.9828,-0.3939,0.5388,-0.6375,0.1862,0.946,-20.66,31.26,28.26,112.54,62.39,-103.03,0,1005.97,53.695,30.453472,-84.31871,105.78,NaN,,0,82.99355,,0 / 18,14104,2018-04-26 01:06:09:438,,,
4.9854,-11.9065,-0.1472,3.9773,-8.9407,-0.694,-0.2593,4.8413,-1.4638,1.6954,0.6573,0.4823,0.946,-18.69,32.46,27.25,109.19,65.7,-99.9,0,1005.84,56.31,30.453472,-84.31871,105.78,NaN,,0,82.99355,,0 / 18,14205,2018-04-26 01:06:09:539,,,
3.849,-9.501,-1.9512,4.0721,-8.8692,0.9959,-1.3966,-3.592,8.1973,1.4568,0.2841,-0.0065,0.946,-19.52,37.3,20.1,93.86,67.12,-82.58,0,1005.84,56.31,30.453472,-84.31871,105.78,NaN,,0,82.99355,,0 / 18,14304,2018-04-26 01:06:09:638,,,
9.3091,-3.2728,-9.5317,5.3466,-8.2234,-0.1635,-8.7539,-4.4488,-0.7384,-5.5367,1.3109,-3.17,0.946,-29.11,23.5,27.77,113.76,56.96,-91.75,0,1005.81,56.31,30.453472,-84.31871,105.78,NaN,,0,82.99355,,0 / 18,14404,2018-04-26 01:06:09:738,,,
14.9626,-2.9742,-0.6798,9.6058,-1.4563,1.3582,0.8937,9.375,2.2282,-4.3928,5.9502,-6.632,0.946,-38.15,6.23,25.51,147.82,38.63,-106.35,2,1005.89,58.601,30.453472,-84.31871,105.78,NaN,,0,82.99355,,0 / 18,14505,2018-04-26 01:06:09:839,,,
1.1011,-1.8702,4.5618,4.7389,4.5498,7.2855,5.4189,2.2119,-0.6796,0.2042,5.7909,-4.3358,0.946,-33.11,-33.6,-7.35,150.15,-19.83,-56.77,2,1005.89,58.601,30.453472,-84.31871,105.78,NaN,,0,82.99355,,0 / 18,14604,2018-04-26 01:06:09:938,,,
6.3284,2.3004,10.0996,2.6259,5.9091,7.3772,-1.955,4.5341,-3.3966,3.0875,3.0326,-1.896,0.946,-14.56,-43.63,-14.5,158.89,-37.04,-19.59,2,1005.96,58.601,30.453472,-84.31871,105.78,NaN,,0,82.99355,,0 / 18,14705,2018-04-26 01:06:10:039,,,
0.6212,2.6928,5.4242,0.3958,7.7483,6.0036,-0.8564,2.9418,0.7178,1.7573,2.087,0.0793,0.946,-9.22,-47.93,-7.41,160.04,-52.17,-3.77,2,1005.96,58.601,30.453472,-84.31871,105.78,NaN,,0,82.99355,,0 / 18,14805,2018-04-26 01:06:10:139,,,
1.1798,4.8371,4.8736,0.5635,7.7461,5.993,0.5102,2.0573,2.7864,-0.1529,0.5084,1.0878,0.946,-12.2,-46.26,-6.66,152.65,-52.15,-5.37,2,1005.96,46.112,30.453472,-84.31871,105.78,NaN,,0,82.99355,,0 / 18,14904,2018-04-26 01:06:10:238,,,
1.1058,6.814,4.5354,0.8522,7.4252,6.3542,0.0707,0.9043,2.1413,-0.341,0.468,0.546,0.946,-16.14,-44.29,-9.39,144.29,-49.19,-7.64,2,1005.96,46.112,30.453472,-84.31871,105.78,NaN,,0,82.99355,,0 / 18,15005,2018-04-26 01:06:10:339,,,
0.6689,6.2397,3.6838,1.3665,6.9615,6.7755,-1.1928,1.7055,4.3308,-0.287,-0.3369,0.4767,9.508,-18.68,-42.68,-12.66,136.73,-46.87,-7.85,2,1005.96,46.112,30.453472,-84.31871,105.78,NaN,,0,82.99355,,0 / 18,15104,2018-04-26 01:06:10:438,,,
0.1294,2.1715,1.8438,2.2082,6.0026,7.4384,1.9063,10.9749,4.9953,-3.1903,-2.4651,2.5228,9.508,-19.3,-42.02,-14.29,137.31,-45.2,-11.4,2,1005.96,32.712,30.453472,-84.31871,105.78,NaN,,0,82.99355,,0 / 18,15205,2018-04-26 01:06:10:539,,,
3.5076,-7.9514,3.5627,7.8268,-0.416,5.8995,-3.6698,13.6037,-2.1349,-3.6905,-5.5477,5.1258,9.508,-36.34,-25.84,-16.87,121.44,-19.47,-31.16,2,1005.97,32.712,30.453472,-84.31871,105.78,NaN,,0,82.99355,,0 / 18,15305,2018-04-26 01:06:10:639,,,
13.4908,-9.8814,11.7296,8.2993,-3.4198,3.9577,-6.1132,4.3617,-2.4333,-3.3478,-3.2798,3.6447,9.508,-45.54,2.43,1.71,119.65,20.4,-64.5,2,1005.98,32.712,30.453472,-84.31871,105.78,NaN,,0,82.99355,,0 / 18,15404,2018-04-26 01:06:10:738,,,
15.2623,-6.4296,5.5153,7.2259,-6.585,-0.8131,-4.6656,-0.6709,-5.5047,-1.9419,-3.4838,2.1089,9.508,-39.56,12.97,21.01,138.64,42.16,-96.42,2,1005.98,43.843,30.453472,-84.31871,105.78,NaN,,0,82.99355,,0 / 18,15505,2018-04-26 01:06:10:839,,,
11.7682,-6.0046,4.7057,6.0208,-7.7141,-0.6915,-4.8653,-4.3004,-0.4997,-0.1541,1.0303,1.401,9.508,-37.07,16.74,23.59,138.2,47.87,-100.53,0,1005.98,43.843,30.453472,-84.31871,105.78,NaN,,0,82.99355,,0 / 18,15604,2018-04-26 01:06:10:938,,,
11.0544,-2.949,-0.1292,6.0462,-7.7204,0.272,-3.9695,-4.001,1.1468,-0.1707,2.3796,0.4924,9.508,-39,20.36,16.8,133.41,51.91,-87.42,0,1005.98,43.843,30.453472,-84.31871,105.78,NaN,,0,82.99355,,0 / 18,15705,2018-04-26 01:06:11:039,,,
9.1528,-4.2312,-2.0723,6.5605,-7.2897,0.2388,-3.2045,1.6708,-0.75,0.0157,-0.6588,-0.5218,15.847,-41.81,17.1,11.11,147.32,47.99,-87.92,0,1005.99,51.027,30.453472,-84.31871,105.78,NaN,,0,82.99355,,0 / 18,15805,2018-04-26 01:06:11:139,,,
9.3748,-11.4887,4.016,6.8044,-7.0386,-0.6281,0.2064,3.6054,-4.5634,2.0611,-1.4252,-0.6947,15.847,-40.33,16.02,17.03,135.14,47.99,-87.92,0,1006.01,51.027,30.453472,-84.31871,105.78,NaN,,0,82.99355,,0 / 18,15904,2018-04-26 01:06:11:238,,,
6.6817,-10.558,4.3591,6.7283,-7.0704,-0.9873,2.5649,3.6536,0.6149,2.8254,-4.1927,0.0415,15.847,-35.63,17.46,21.95,121.8,44.02,-91.3,0,1006.06,51.027,30.453472,-84.31871,105.78,NaN,,0,82.99355,,0 / 18,16005,2018-04-26 01:06:11:339,,,
4.798,-8.8942,0.5245,6.4435,-7.329,-1.0015,0.6491,0.1932,0.3526,0.9289,-0.1588,0.7466,15.847,-29.64,23.74,27.41,112.83,48.34,-98.83,0,1006.06,51.027,30.453472,-84.31871,105.78,NaN,,0,82.99355,,0 / 18,16105,2018-04-26 01:06:11:439,,,
6.2353,-7.5987,-1.3587,5.7248,-7.9264,0.7964,-4.16,-2.5179,-3.5773,1.3077,0.91,0.8278,15.847,-28.68,30.81,19.38,97.07,53.9,-82.08,0,1006.05,51.693,30.453472,-84.31871,105.78,NaN,,0,82.99355,,0 / 18,16205,2018-04-26 01:06:11:539,,,
5.2719,-5.9131,3.2136,5.6513,-7.6471,2.4126,0.1969,-2.7645,3.0591,0.7244,0.418,-0.0783,15.847,-29.81,32.42,14.55,87.55,53.46,-68.43,0,1006.05,51.693,30.453472,-84.31871,105.78,NaN,,0,82.99355,,0 / 18,16305,2018-04-26 01:06:11:639,,,
5.4021,-4.9138,-0.5419,5.6425,-7.7387,2.124,1.3304,-1.3415,0.9108,-0.6561,-0.6472,0.0544,15.847,-30.2,32.48,15.1,86.08,52.08,-69.37,0,1006.05,51.693,30.453472,-84.31871,105.78,NaN,,0,82.99355,,0 / 18,16405,2018-04-26 01:06:11:739,,,
2.7484,-10.9301,8.4264,5.5578,-8.0622,0.5893,3.0198,0.1771,-2.7383,-0.8968,-1.1899,0.2195,4.226,-28.34,30.69,19.64,98.68,55.27,-83.95,0,1006.05,50.677,30.453472,-84.31871,105.78,NaN,,0,82.99355,,0 / 18,16505,2018-04-26 01:06:11:839,,,
0.4338,-7.7817,-4.0106,5.3388,-8.1989,-0.7153,-5.1203,3.5973,0.2433,-2.1412,1.0861,-0.0096,4.226,-26.64,29.37,23.92,114.26,56.7,-97.63,0,1006.05,50.677,30.453472,-84.31871,105.78,NaN,,0,82.99355,,0 / 18,16604,2018-04-26 01:06:11:938,,,
6.3081,-12.0907,1.3221,5.4999,-7.9784,-1.5273,0.2414,3.5952,-1.7071,-0.2384,-0.2872,-0.2965,4.226,-28.65,24.31,26.88,126.63,55.21,-103.29,0,1006.03,50.677,30.453472,-84.31871,105.78,NaN,,0,82.99355,,0 / 18,16704,2018-04-26 01:06:12:038,,,
4.4208,-6.7138,-2.2019,5.3089,-7.9794,-2.0929,-0.7903,-4.9518,2.4064,0.0975,-0.3899,0.3475,4.226,-27.77,22.27,30.57,130.33,51.57,-111.67,0,1006.13,58.064,30.453472,-84.31871,105.78,NaN,,0,82.99355,,0 / 18,16805,2018-04-26 01:06:12:139,,,
4.5772,-6.2081,-3.0031,5.1143,-8.183,-1.7658,-1.8831,-0.0255,0.9364,0.4785,0.1564,0.4422,4.226,-26.26,25.74,29.3,126.6,56.53,-109.05,0,1006.13,58.064,30.453472,-84.31871,105.78,NaN,,0,82.99355,,0 / 18,16905,2018-04-26 01:06:12:239,,,
6.9945,-8.3572,-2.6193,5.1051,-8.2185,-1.6218,-2.1414,7.266,1.4603,0.5009,-0.1713,-0.1876,4.226,-25.65,27.98,28.09,123.48,58.49,-105.71,0,1006.03,58.064,30.453472,-84.31871,105.78,NaN,,0,82.99355,,0 / 18,17005,2018-04-26 01:06:12:339,,,
4.8959,-17.287,3.7594,4.7249,-8.3452,-2.0664,0.2734,2.7478,-2.6256,-0.1143,-0.5313,0.6583,4.226,-22.56,27.12,30.88,126.7,58.29,-113.62,0,1005.97,51.836,30.453472,-84.31871,105.78,NaN,,0,82.99355,,0 / 18,17105,2018-04-26 01:06:12:439,,,
0.0876,-5.7843,1.2513,4.6022,-8.326,-2.3946,0.0058,2.6324,-1.9414,-0.586,-0.0434,-0.2335,0.946,-22.1,25.65,32.75,129.46,58.07,-117.49,0,1005.97,51.836,30.453472,-84.31871,105.78,NaN,,0,82.99355,,0 / 18,17205,2018-04-26 01:06:12:539,,,
4.3492,-10.1415,0.0171,5.1179,-8.1577,-1.8692,-1.0139,1.4911,-3.0774,-0.9854,2.2636,-0.1329,0.946,-28.26,24.62,28.99,139.34,58.54,-112.74,0,1005.98,51.836,30.453472,-84.31871,105.78,NaN,,0,82.99355,,0 / 18,17305,2018-04-26 01:06:12:639,,,
6.0622,-8.3608,0.5233,5.3861,-7.9912,-1.8351,-0.4416,0.7994,-0.7361,-1.4346,2.0635,-0.3479,0.946,-31.91,21.96,27.28,144.92,56.26,-110.06,0,1006.03,51.836,30.453472,-84.31871,105.78,NaN,,0,82.99355,,0 / 18,17404,2018-04-26 01:06:12:738,,,
4.4387,-6.3092,-1.7137,5.0313,-8.2413,-1.733,0.1089,-0.8818,-1.3617,-1.0697,1.7452,0.7055,0.946,-36.26,20.1,22.51,155.32,56.02,-108.17,0,1006.03,48.849,30.453472,-84.31871,105.78,NaN,,0,82.99355,,0 / 18,17505,2018-04-26 01:06:12:839,,,
5.3603,-7.8058,-0.0225,4.996,-8.2332,-1.8682,-1.9483,0.6425,-2.361,-1.4326,1.9621,0.193,0.946,-39.28,19.96,17.29,174.78,57.06,-110.5,0,1006.03,48.849,30.453472,-84.31871,105.78,NaN,,0,82.99355,,0 / 18,17604,2018-04-26 01:06:12:938,,,
6.7092,-9.6659,0.7236,5.093,-8.2072,-1.7145,1.3156,0.6734,-0.1874,-0.8537,1.638,0.3819,0.946,-40.33,19.37,15.37,179.73,55.99,-110.4,0,1006.03,48.849,30.453472,-84.31871,105.78,NaN,,0,82.99355,,0 / 18,17705,2018-04-26 01:06:13:039,,,
4.126,-9.6069,-1.6369,5.0588,-8.2549,-1.5815,0.3457,1.3015,0.2072,-1.7904,2.5318,0.6141,0.946,-41.31,19.59,7.24,193.09,57.3,-107.36,0,1006.02,39.032,30.453472,-84.31871,105.78,NaN,,0,82.99355,,0 / 18,17804,2018-04-26 01:06:13:138,,,
5.1466,-7.4855,-1.8325,4.7843,-8.3907,-1.7156,-0.471,-1.1666,0.1295,-1.5869,2.3867,0.8054,0.946,-40.8,22.52,0.79,211.1,58.8,-109.73,0,1006.04,39.032,30.453472,-84.31871,105.78,NaN,,0,82.99355,,0 / 18,17905,2018-04-26 01:06:13:239,,,
5.2588,-7.5144,-2.2534,4.2539,-8.7788,-1.036,-0.7189,-1.516,1.1784,-0.6333,2.4402,0.9111,0.946,-37.41,27.59,-8.52,224.56,63.49,-103.69,0,1006.04,39.032,30.453472,-84.31871,105.78,NaN,,0,82.99355,,0 / 18,18004,2018-04-26 01:06:13:338,,,
5.1036,-7.4301,-2.2091,4.1908,-8.8481,-0.6194,0.5339,-0.1685,1.2648,-0.1962,1.954,0.1536,0.946,-34.14,28.45,-11.76,233.6,63.49,-103.69,0,1006.04,49.033,30.453472,-84.31871,105.78,NaN,,0,82.99355,,0 / 18,18105,2018-04-26 01:06:13:439,,,
4.5127,-12.287,0.3721,4.2634,-8.8301,-0.2987,-1.7276,3.0448,-0.4395,-0.7115,1.84,0.0098,0.946,-30.37,30.11,-19.36,238.99,64.57,-94.47,0,1006.03,49.033,30.453472,-84.31871,105.78,NaN,,0,82.99355,,0 / 18,18204,2018-04-26 01:06:13:538,,,
6.3236,-6.9461,-1.6549,4.5685,-8.6635,-0.5554,-0.3331,-1.9326,0.6571,-0.5502,0.8619,-0.117,0.946,-27.82,31.28,-20.26,251.28,62.02,-96.93,0,1006.03,49.033,30.453472,-84.31871,105.78,NaN,,0,82.99355,,0 / 18,18305,2018-04-26 01:06:13:639,,,
4.884,-6.7403,-1.1272,4.4729,-8.7195,-0.4468,0.0124,-0.3624,0.0216,-0.2093,0.8528,0.249,0.946,-25.78,31.69,-20.57,256.28,62.07,-96.34,0,1006.03,34.234,30.453472,-84.31871,105.78,NaN,,0,82.99355,,0 / 18,18404,2018-04-26 01:06:13:738,,,
5.2767,-8.073,0.4549,4.5655,-8.6715,-0.4437,-1.6573,-0.4281,-0.659,-0.2582,0.6203,-0.0511,0.946,-24.04,33.44,-20.24,259.63,62.67,-96.23,0,1006.02,34.234,30.453472,-84.31871,105.78,NaN,,0,82.99355,,0 / 18,18505,2018-04-26 01:06:13:839,,,
6.7522,-8.3656,-0.242,4.7631,-8.5706,-0.3058,-0.5399,-0.6592,0.371,-0.0548,0.4219,-0.2773,0.946,-23.44,33.43,-21.81,263.27,60.89,-93.67,0,1006.03,34.234,30.453472,-84.31871,105.78,NaN,,0,82.99355,,0 / 18,18604,2018-04-26 01:06:13:938,,,
4.4447,-9.1121,0.0555,4.8302,-8.5385,0.006,-0.2486,-0.0143,0.7893,-0.1921,0.782,0.0169,0.946,-22.42,33.45,-23.17,262.74,60.5,-89.93,0,1006.03,34.234,30.453472,-84.31871,105.78,NaN,,0,82.99355,,0 / 18,18705,2018-04-26 01:06:14:039,,,
5.537,-8.3464,-0.6882,4.8306,-8.5377,0.0986,-1.0079,-0.8575,1.022,-0.2583,0.7148,0.1041,0.946,-20.65,33.63,-23.65,265.26,60.49,-88.83,0,1006.06,33.657,30.453472,-84.31871,105.78,NaN,,0,82.99355,,0 / 18,18804,2018-04-26 01:06:14:138,,,
5.5608,-7.5493,-0.9521,4.5558,-8.6852,0.218,-0.9669,-1.1031,1.1245,-0.2162,0.613,0.3151,0.946,-17.29,34.6,-24.28,273.26,61.1,-88.08,0,1006.06,33.657,30.453472,-84.31871,105.78,NaN,,0,82.99355,,0 / 18,18905,2018-04-26 01:06:14:239,,,
5.8151,-8.1441,-1.2771,4.2079,-8.8574,0.2746,-2.8085,0.3538,0.5047,-0.2424,0.5751,0.3131,0.946,-15.35,36.6,-24.5,274.39,63.41,-86.21,0,1006.06,33.657,30.453472,-84.31871,105.78,NaN,,0,82.99355,,0 / 18,19004,2018-04-26 01:06:14:338,,,
7.0602,-9.1939,-0.0897,4.087,-8.914,0.2699,-1.9154,1.7047,-1.1077,-0.1842,0.3709,0.2675,0.946,-14.16,36.65,-24.68,274.33,64.54,-86.27,0,1006.13,42.631,30.453472,-84.31871,105.78,NaN,,0,82.99355,,0 / 18,19105,2018-04-26 01:06:14:439,,,
5.4021,-11.0505,2.4268,4.6388,-8.6438,0.0555,0.6865,1.3691,-1.6005,-0.4478,0.0116,-0.6738,0.946,-14.25,36.29,-24.54,271.86,64.11,-83.77,0,1006.13,42.631,30.453472,-84.31871,105.78,NaN,,0,82.99355,,0 / 18,19205,2018-04-26 01:06:14:539,,,
3.0815,-9.0543,-0.3008,5.038,-8.4131,-0.2745,0.2022,-0.3531,0.0399,-0.7466,-0.3307,-0.671,0.946,-17.52,36.32,-22.66,279.89,59.05,-93.12,0,1006.12,42.631,30.453472,-84.31871,105.78,NaN,,0,82.99355,,0 / 18,19304,2018-04-26 01:06:14:638,,,
5.9798,-8.5077,-0.1736,5.3856,-8.0922,-1.322,0.7004,0.6831,-0.0933,-0.3038,-0.8981,-0.3348,0.946,-21.1,36.57,-16.8,289.06,55.58,-103.79,0,1006.04,50.831,30.453472,-84.31871,105.78,NaN,,0,82.99355,,0 / 18,19405,2018-04-26 01:06:14:739,,,Out
4.5426,-8.911,-1.5818,5.484,-7.9281,-1.8187,0.4791,-2.9809,0.1224,-0.1122,-0.4465,-0.3875,0.946,-22.88,37.07,-17.02,289.92,53.92,-108.35,0,1006.04,50.831,30.453472,-84.31871,105.78,NaN,,0,82.99355,,0 / 18,19504,2018-04-26 01:06:14:838,,,Out
4.847,-4.9764,-1.9884,5.6696,-7.8339,-1.6497,0.7808,-2.3136,0.6115,0.5072,-0.1976,-0.1646,0.946,-23.93,35.48,-16,285.78,52.99,-106.22,0,1006.01,50.831,30.453472,-84.31871,105.78,NaN,,0,82.99355,,0 / 18,19605,2018-04-26 01:06:14:939,,,Out
5.6599,-6.5308,-3.4877,5.8627,-7.6795,-1.6998,-1.475,0.8961,0.8694,-0.0702,-0.1776,-0.2864,0.946,-25.64,34.34,-16.93,281.13,52.41,-105.91,0,1006.01,42.705,30.453472,-84.31871,105.78,NaN,,0,82.99355,,0 / 18,19704,2018-04-26 01:06:15:038,,,Out
9.8499,-17.9396,-3.8715,5.9721,-7.4833,-2.1381,2.1263,-1.0394,-0.1879,-0.1257,0.7077,-0.0217,0.946,-26.82,34.22,-14.71,285.52,49.71,-109.7,0,1006.04,42.705,30.453472,-84.31871,105.78,NaN,,0,82.99355,,0 / 18,19805,2018-04-26 01:06:15:139,,,Out
2.3616,-5.9047,-3.1638,5.9469,-7.5233,-2.0666,3.8131,-3.2765,-2.0509,-0.4136,-0.352,-0.0831,0.946,-26.11,34.33,-14.39,286.25,50.33,-109.17,0,1006.05,42.705,30.453472,-84.31871,105.78,NaN,,0,82.99355,,0 / 18,19904,2018-04-26 01:06:15:238,,,Out
2.9263,-9.8646,-0.5455,5.8599,-7.6999,-1.615,2.0374,0.2435,-0.8271,0.299,0.3295,0.1292,0.946,-24.95,33.8,-17.13,283.89,51.71,-105.41,0,1006.07,42.705,30.453472,-84.31871,105.78,NaN,,0,82.99355,,0 / 18,20004,2018-04-26 01:06:15:338,,,Out
4.8362,-6.8149,0.4585,6.0537,-7.668,-0.8891,-0.5225,-1.1149,0.2593,-0.1243,1.2585,-0.1872,0.946,-23.74,34.18,-19.66,281.93,51.41,-98.35,0,1006.07,47.153,30.453472,-84.31871,105.78,NaN,,0,82.99355,,0 / 18,20104,2018-04-26 01:06:15:438,,,Out
6.5206,-6.5837,-1.036,5.7827,-7.912,-0.4438,-0.2593,-1.5215,0.7133,0.3351,0.3095,0.383,0.946,-22.39,34.28,-20.29,283.29,52.3,-96.48,0,1006.1,47.153,30.453472,-84.31871,105.78,NaN,,0,82.99355,,0 / 18,20204,2018-04-26 01:06:15:538,,,Out
7.1007,-7.6107,-1.0036,5.5662,-8.0712,-0.3309,-1.686,-0.5058,0.8655,-0.0174,0.395,0.4712,0.946,-19.83,34.93,-21.15,281.47,55.36,-93.4,0,1006.1,47.153,30.453472,-84.31871,105.78,NaN,,0,82.99355,,0 / 18,20304,2018-04-26 01:06:15:638,,,Out
7.5759,-7.3988,-0.9988,5.6473,-8.0206,0.1205,-1.4889,1.3761,-1.8087,0.3396,0.2366,-0.0639,0.946,-18.31,35.65,-22.69,284.5,55.71,-92.11,0,1006.15,47.579,30.453472,-84.31871,105.78,NaN,,0,82.99355,,0 / 18,20404,2018-04-26 01:06:15:738,,,Out
3.9982,-10.7651,2.2169,5.8829,-7.8467,0.2397,1.3513,5.3862,0.4672,-0.0891,-0.258,-0.0746,0.946,-21.14,32.58,-23.83,275.54,53.12,-87.67,0,1005.97,47.579,30.453472,-84.31871,105.78,NaN,,0,82.99355,,0 / 18,20504,2018-04-26 01:06:15:838,,,Out
5.235,-12.783,0.2006,5.5161,-8.1121,0.0577,-2.9774,3.8813,0.8619,0.0569,-0.4883,0.3206,0.946,-21.3,32.62,-22.71,277.05,53.25,-89.73,0,1005.9,47.579,30.453472,-84.31871,105.78,NaN,,0,82.99355,,0 / 18,20605,2018-04-26 01:06:15:939,,,Out
5.3591,-7.9936,-4.1318,5.5385,-7.9293,1.6395,0.189,0.8882,-0.1692,2.6204,-1.715,-0.5346,0.946,-18.07,31.75,-26.3,266.18,57.96,-81.05,0,1005.9,54.473,30.453472,-84.31871,105.78,NaN,,0,82.99355,,0 / 18,20705,2018-04-26 01:06:16:039,,,Out
5.9798,-5.2546,-2.1395,5.7023,-7.6971,2.1154,-5.9135,-10.3415,5.9483,0.7268,1.5249,-0.2272,0.946,-18.83,27.31,-31.67,255.68,51.69,-69.65,0,1005.89,54.473,30.453472,-84.31871,105.78,NaN,,0,82.99355,,0 / 18,20804,2018-04-26 01:06:16:138,,,Out
11.6823,2.688,-3.784,9.4761,-2.3283,1.0089,-1.0698,-0.8762,-2.1904,-2.6172,0.2117,-6.3311,0.946,-25.34,25.07,-27.86,278.95,35.51,-82.67,0,1005.89,54.473,30.453472,-84.31871,105.78,NaN,,0,82.99355,,0 / 18,20905,2018-04-26 01:06:16:239,,,Out
11.2454,-1.2128,2.7974,9.0773,0.8253,3.6273,-2.7938,3.5773,-1.5915,-0.7919,6.5003,-5.214,0.946,-30.22,11.69,-30.21,312.33,-4.83,-68.22,2,1005.92,54.473,30.453472,-84.31871,105.78,NaN,,0,82.99355,,0 / 18,21005,2018-04-26 01:06:16:339,,,Out
11.3981,-2.2723,5.2742,3.1929,4.1185,8.3114,0.4302,6.8855,2.1827,0.3467,5.7354,-4.457,0.946,-4.93,0.26,-45.29,328.05,-24.82,-21.01,2,1005.95,48.376,30.453472,-84.31871,105.78,NaN,,0,82.99355,,0 / 18,21105,2018-04-26 01:06:16:439,,,Out
3.6246,1.0133,13.2349,2.5564,3.9081,8.6271,-0.2572,1.729,-1.668,1.029,-0.0849,-1.3253,0.946,-0.09,2.38,-45.51,326.04,-23.48,-16.51,2,1005.95,48.376,30.453472,-84.31871,105.78,NaN,,0,82.99355,,0 / 18,21204,2018-04-26 01:06:16:538,,,Out
2.598,2.6266,10.2207,2.5132,5.3262,7.8455,-0.0254,2.0135,0.0308,0.9065,-1.1537,-1.3659,0.946,-2.85,-0.5,-45.42,335.32,-29.43,-16.04,2,1005.97,48.376,30.453472,-84.31871,105.78,NaN,,0,82.99355,,0 / 18,21305,2018-04-26 01:06:16:639,,,Out
1.9558,4.187,6.6176,1.1399,6.7037,7.0708,0.9417,0.7653,2.8124,1.6073,1.8131,0.1234,0.946,2.46,-7.88,-45.25,328.85,-37.6,-13.12,2,1005.97,50.784,30.453472,-84.31871,105.78,NaN,,0,82.99355,,0 / 18,21404,2018-04-26 01:06:16:738,,,Out
-0.0091,6.0447,3.9921,1.1775,6.9775,6.7944,1.1225,1.5401,1.7537,0.4171,0.17,0.7009,16.903,5.3,-13.42,-43.03,328.96,-45.34,-9.83,2,1005.97,50.784,30.453472,-84.31871,105.78,NaN,,0,82.99355,,0 / 18,21505,2018-04-26 01:06:16:839,,,Out
-0.2419,4.323,3.0853,2.6887,6.5981,6.7433,1.5485,4.7166,6.0727,0.0457,0.4646,2.3605,16.903,5.65,-13.79,-43.54,322.21,-45.91,-12.81,2,1005.97,50.784,30.453472,-84.31871,105.78,NaN,,0,82.99355,,0 / 18,21604,2018-04-26 01:06:16:938,,,Out
2.4941,0.7364,1.3593,5.4097,5.2478,6.2795,-0.3401,6.3777,6.0295,-1.1795,-4.6781,4.3263,16.903,-5.47,-13.28,-43.99,289.02,-32.34,-40.74,2,1005.97,32.583,30.453472,-84.31871,105.78,NaN,,0,82.99355,,0 / 18,21705,2018-04-26 01:06:17:039,,,Out
5.3639,-2.6865,0.648,9.3745,-0.7657,2.7873,-4.3878,6.7375,-6.7002,-2.0844,-4.0813,5.2167,16.903,-28.83,6.62,-34.9,279.06,4.48,-73.44,2,1005.97,32.583,30.453472,-84.31871,105.78,NaN,,0,82.99355,,0 / 18,21804,2018-04-26 01:06:17:138,,,Out
13.3284,-7.465,5.1951,7.9436,-5.3559,2.1095,-4.7884,-0.2062,1.5272,-0.0228,-0.1389,4.0278,16.903,-25.85,24.53,-31.1,295.94,21.06,-75.97,2,1005.97,32.583,30.453472,-84.31871,105.78,NaN,,0,82.99355,,18-May,21904,2018-04-26 01:06:17:238,,,Out
12.9894,-4.6321,0.8063,7.2924,-6.3823,1.5244,-4.7196,-1.9981,0.2389,-0.2368,-0.9274,2.3529,16.903,-22.31,27.71,-29.43,289.18,33.09,-75.13,2,1005.99,43.324,30.453472,-84.31871,105.78,NaN,,0,82.99355,,18-May,22005,2018-04-26 01:06:17:339,,,Out
11.7802,-4.6743,0.9239,6.9349,-6.9019,0.7119,-4.7292,-3.3131,-0.5034,-0.3984,-0.7971,0.3277,16.903,-18.67,33.82,-25.95,289.44,44.66,-80.13,0,1005.99,43.324,30.453472,-84.31871,105.78,NaN,,0,82.99355,,18-May,22104,2018-04-26 01:06:17:438,,,Out
10.898,-2.5697,0.3181,7.5095,-6.3119,-0.0597,1.1265,0.9126,8.0371,-0.8812,-2.6702,-1.5033,24.298,-25.38,30.57,-22.27,289.27,40.05,-90.46,0,1005.98,43.324,30.453472,-84.31871,105.78,NaN,,0,82.99355,,18-May,22205,2018-04-26 01:06:17:539,,,Out
10.3632,-8.4065,0.6396,7.7786,-5.5533,-2.2112,-3.482,3.563,-7.9214,-0.8781,-0.8448,-0.4483,24.298,-32.2,29.98,-14.65,292.56,34.48,-105.87,0,1005.98,50.397,30.453472,-84.31871,105.78,NaN,,0,82.99355,,18-May,22304,2018-04-26 01:06:17:638,,,Out
11.169,-9.1771,5.7768,7.4791,-5.9333,-2.2574,-5.1858,1.8268,1.8499,-0.5134,1.2052,-0.3804,24.298,-31.74,30.36,-14.32,289.02,37.22,-106.8,0,1006.01,50.397,30.453472,-84.31871,105.78,NaN,,0,82.99355,,18-May,22405,2018-04-26 01:06:17:739,,,Out
5.328,-7.3013,-0.0789,7.7476,-5.7422,-1.7995,9.0133,2.8336,-2.5088,-0.1006,0.1892,-0.38,24.298,-32.67,28.36,-14.44,285.22,35.83,-103.08,0,1006.08,50.397,30.453472,-84.31871,105.78,NaN,,0,82.99355,,18-May,22504,2018-04-26 01:06:17:838,,,
11.1821,-3.8423,0.6264,7.5787,-6.1147,1.1877,4.6435,2.5819,1.6383,2.311,1.7936,-0.1762,24.298,-27.61,27.24,-24.69,280.42,38.6,-94.86,0,1006.05,50.397,30.453472,-84.31871,105.78,NaN,,0,82.99355,,18-May,22604,2018-04-26 01:06:17:938,,,
3.0206,-8.6341,-0.9173,7.4504,-6.0958,1.8889,0.5718,-4.8345,1.1055,1.6074,1.4191,0.5961,24.298,-24.09,24.06,-29.3,272.73,38.56,-81.09,0,1006.05,53.655,30.453472,-84.31871,105.78,NaN,,0,82.99355,,18-May,22704,2018-04-26 01:06:18:038,,,
6.6674,-1.3429,1.2681,7.3833,-6.2605,1.5904,3.6188,-3.8118,2.0556,-0.7267,-0.113,0.2104,24.298,-24.93,22.69,-30.72,266.23,37.49,-74.23,0,1006.05,53.655,30.453472,-84.31871,105.78,NaN,,0,82.99355,,18-May,22805,2018-04-26 01:06:18:139,,,
6.0837,-2.9923,2.6846,6.774,-7.0875,0.3408,0.0397,2.1687,-6.2212,-2.7092,-0.2711,2.01,0.237,-23.23,30.3,-25.1,277.74,46.26,-87.12,0,1006.05,53.655,30.453472,-84.31871,105.78,NaN,,0,82.99355,,0 / 18,22905,2018-04-26 01:06:18:239,,,
4.0782,-12.2978,-4.7735,5.1912,-8.1885,-1.4952,-2.2345,4.7239,4.0369,-3.0518,1.1131,1.823,0.237,-15.08,41.16,-15,307.04,56.59,-106.07,0,1006.03,56.342,30.453472,-84.31871,105.78,NaN,,0,82.99355,,0 / 18,23005,2018-04-26 01:06:18:339,,,
7.3837,-12.9395,-5.3936,5.1146,-8.1098,-2.0758,1.7717,-1.1865,0.4166,0.0202,-1.0454,0.0907,0.237,-15.68,40.63,-15.12,306.93,55.4,-107.02,0,1005.99,56.342,30.453472,-84.31871,105.78,NaN,,0,82.99355,,0 / 18,23104,2018-04-26 01:06:18:438,,,
3.6628,-7.2254,-2.3818,5.1487,-7.9665,-2.5025,1.0058,-1.8587,0.0043,-0.3593,-1.0337,-0.1384,0.237,-18.24,40.14,-11.76,307.76,54.3,-115.92,0,1006.01,56.342,30.453472,-84.31871,105.78,NaN,,0,82.99355,,0 / 18,23204,2018-04-26 01:06:18:538,,,
4.0018,-6.2936,-1.451,5.9498,-7.4916,-2.1708,0.1798,1.6665,-0.6822,0.548,-0.1187,-1.0345,0.237,-22.89,38.55,-12.9,301.01,49.79,-110.04,0,1006.01,52.957,30.453472,-84.31871,105.78,NaN,,0,82.99355,,0 / 18,23304,2018-04-26 01:06:18:638,,,
6.2783,-6.8486,-4.494,5.8199,-7.714,-1.6911,-0.3025,3.0689,4.2789,0.2145,-0.3191,0.2867,0.237,-23.42,36.77,-15.1,297.24,49.79,-110.04,0,1006.04,52.957,30.453472,-84.31871,105.78,NaN,,0,82.99355,,0 / 18,23405,2018-04-26 01:06:18:739,,,
8.0736,-16.9234,-4.2673,5.3681,-7.9019,-2.2313,-2.5792,6.8423,-6.7806,-0.5929,-0.5694,0.448,0.237,-21.83,37.02,-13.48,297.37,51.92,-111.34,0,1006.04,52.957,30.453472,-84.31871,105.78,NaN,,0,82.99355,,0 / 18,23505,2018-04-26 01:06:18:839,,,
0.4565,-6.5536,2.3656,4.9114,-8.1577,-2.3592,1.3892,2.3386,-5.2633,-0.1659,0.4384,0.5622,1.183,-20.44,41.05,-10.3,306.73,53.95,-117.43,0,1006.02,57.287,30.453472,-84.31871,105.78,NaN,,0,82.99355,,0 / 18,23605,2018-04-26 01:06:18:939,,,
5.3782,-10.7122,0.6984,5.009,-8.1363,-2.2242,0.2405,-0.1261,-2.5287,-0.6621,1.8327,0.5775,1.183,-15.94,41.96,-10.81,312.27,56.04,-113.94,0,1006.08,57.287,30.453472,-84.31871,105.78,NaN,,0,82.99355,,0 / 18,23705,2018-04-26 01:06:19:039,,,
4.7813,-7.9984,0.4165,5.2215,-8.0515,-2.036,-0.8823,-0.0755,-0.9992,-1.0892,2.0977,0.478,1.183,-12.79,42.7,-9.1,323.63,54.43,-112.82,0,1006.08,57.287,30.453472,-84.31871,105.78,NaN,,0,82.99355,,0 / 18,23805,2018-04-26 01:06:19:139,,,
6.0932,-7.9563,-0.8921,5.0771,-8.1371,-2.0607,-1.0762,-0.3184,-0.8801,-1.2079,1.6454,0.5632,1.183,-7.2,45.52,-7.09,337.94,56.04,-112.09,0,1006.12,57.287,30.453472,-84.31871,105.78,NaN,,0,82.99355,,0 / 18,23904,2018-04-26 01:06:19:238,,,
5.254,-7.3723,-0.2012,5.1183,-8.0726,-2.2075,-0.2573,-0.4188,-2.4856,-1.2155,1.65,0.3833,1.183,-4.64,46.02,-0.66,352.72,55.38,-113.33,0,1006.1,57.643,30.453472,-84.31871,105.78,NaN,,0,82.99355,,0 / 18,24005,2018-04-26 01:06:19:339,,,
4.2394,-9.2842,-0.5982,5.2893,-7.974,-2.1621,0.5898,2.6045,1.2744,-1.0153,1.6859,0.3811,1.183,-4.02,46.94,0.55,358.6,54.37,-112.23,0,1006.1,57.643,30.453472,-84.31871,105.78,NaN,,0,82.99355,,0 / 18,24105,2018-04-26 01:06:19:439,,,
4.6226,-10.6339,-3.285,5.0928,-8.1198,-2.0898,-0.9202,1.8143,0.4992,-1.2437,2.0055,0.7724,1.183,-1.51,46.32,6.35,11.78,54.89,-111.96,0,1006.08,57.643,30.453472,-84.31871,105.78,NaN,,0,82.99355,,0 / 18,24204,2018-04-26 01:06:19:538,,,
4.4924,-7.9707,-2.5329,4.4788,-8.4939,-2.0076,0.1962,-1.8977,1.0177,-0.9326,1.8599,1.1208,1.183,0.94,44.95,11.92,28.73,57.69,-113,0,1006.08,51.368,30.453472,-84.31871,105.78,NaN,,0,82.99355,,0 / 18,24304,2018-04-26 01:06:19:638,,,
4.5927,-6.485,-2.6433,4.2337,-8.6283,-1.9656,-0.8523,0.0038,0.6565,-0.6658,1.5916,0.6933,1.183,3.83,43.88,15.93,41.67,61.59,-114.9,0,1006,51.368,30.453472,-84.31871,105.78,NaN,,0,82.99355,,0 / 18,24404,2018-04-26 01:06:19:738,,,
4.3241,-8.8918,-2.9227,3.893,-8.7753,-2.0186,-0.1523,-0.6918,1.2078,-0.7942,1.5421,0.675,1.183,3.78,42.98,18.1,48.25,62.7,-115.51,0,1005.97,51.368,30.453472,-84.31871,105.78,NaN,,0,82.99355,,0 / 18,24505,2018-04-26 01:06:19:839,,,
3.9648,-8.1224,-3.129,3.7689,-8.8271,-2.0282,-0.114,-1.276,1.3714,-0.3843,1.6593,0.504,1.183,3.21,40.73,23.6,66.02,64.13,-118.29,0,1005.97,41.439,30.453472,-84.31871,105.78,NaN,,0,82.99355,,0 / 18,24605,2018-04-26 01:06:19:939,,,
2.8749,-7.3904,-3.1974,3.7932,-8.914,-1.5457,0.708,-1.617,1.5863,-0.1964,1.6246,0.2636,1.183,1.54,40.24,24.48,66.16,65.32,-112.17,0,1005.97,41.439,30.453472,-84.31871,105.78,NaN,,0,82.99355,,0 / 18,24705,2018-04-26 01:06:20:039,,,
3.5983,-7.7877,-3.141,4.1233,-8.7987,-1.3477,-0.5293,3.6909,1.3009,-0.5069,1.3523,-0.1452,1.183,-3.99,39.42,26.15,74.31,63.76,-108.1,0,1005.98,41.439,30.453472,-84.31871,105.78,NaN,,0,82.99355,,0 / 18,24805,2018-04-26 01:06:20:139,,,
4.4232,-9.2036,-0.9269,4.2147,-8.759,-1.3236,-0.2984,0.3945,-0.2693,-0.7653,1.5097,0.0395,1.183,-5.94,37.71,26.94,80.07,63.76,-108.1,0,1005.98,42.823,30.453472,-84.31871,105.78,NaN,,0,82.99355,,0 / 18,24905,2018-04-26 01:06:20:239,,,
2.1897,-6.9004,-0.6378,4.3784,-8.686,-1.2728,-1.6163,-0.7646,-2.2198,-0.5184,1.3832,0.067,1.183,-10.04,35.33,29.01,91.86,62.88,-108.79,0,1006.03,42.823,30.453472,-84.31871,105.78,NaN,,0,82.99355,,0 / 18,25005,2018-04-26 01:06:20:339,,,
5.6277,-9.1458,-0.3883,4.5648,-8.5996,-1.2021,0.2746,-0.5672,-0.357,-0.4256,1.2171,-0.0963,1.183,-15.43,34.06,29.03,96.66,61.24,-104.75,0,1006.09,42.823,30.453472,-84.31871,105.78,NaN,,0,82.99355,,0 / 18,25105,2018-04-26 01:06:20:439,,,
4.7574,-8.1862,-0.4843,4.755,-8.5398,-0.8353,-1.3731,-0.0694,9.00E-04,-0.3877,1.3902,0.0103,1.183,-16.32,33.86,28.45,95.38,60.73,-102.4,0,1006.13,42.823,30.453472,-84.31871,105.78,NaN,,0,82.99355,,0 / 18,25205,2018-04-26 01:06:20:539,,,
5.9165,-8.4294,-0.6294,4.6989,-8.5916,-0.5832,-1.2321,-0.7389,0.6657,-0.4326,1.1169,0.1631,1.183,-20.34,31.87,27.77,101.15,60.54,-98.04,0,1006.13,43.925,30.453472,-84.31871,105.78,NaN,,0,82.99355,,0 / 18,25305,2018-04-26 01:06:20:639,,,
5.8831,-7.4253,-1.2555,4.4647,-8.7245,-0.4304,-1.6846,-0.7877,1.5818,-0.1586,0.8104,0.4263,1.183,-21.87,32.21,26.73,106.1,62.79,-95.51,0,1006.16,43.925,30.453472,-84.31871,105.78,NaN,,0,82.99355,,0 / 18,25405,2018-04-26 01:06:20:739,,,
6.0944,-8.2392,-1.9116,4.0311,-8.9345,-0.4008,-2.2104,-1.7095,1.2925,-0.2424,0.5082,0.4,1.183,-21.74,33.04,25.53,110.06,65.61,-95.68,0,1006.16,43.925,30.453472,-84.31871,105.78,NaN,,0,82.99355,,0 / 18,25505,2018-04-26 01:06:20:839,,,
6.0347,-9.3649,-0.5215,4.0515,-8.9301,-0.2731,-2.0182,0.4959,-0.7146,0.3176,-0.1432,-0.468,1.183,-21.68,33,24.76,108.5,65.55,-93.86,0,1006.11,44.442,30.453472,-84.31871,105.78,NaN,,0,82.99355,,0 / 18,25604,2018-04-26 01:06:20:938,,,
3.0528,-10.0415,1.6735,4.8915,-8.4725,-0.7244,1.8354,3.9061,0.46,-0.4046,-0.4833,-0.9447,1.183,-23.38,32.2,25.99,106.04,63.11,-92.78,0,1005.94,44.442,30.453472,-84.31871,105.78,NaN,,0,82.99355,,0 / 18,25704,2018-04-26 01:06:21:038,,,
6.1147,-7.9539,-0.8873,5.3198,-8.1226,-1.3995,-0.0953,-1.0563,-0.5891,-0.8142,-0.3201,-0.5766,1.183,-25.9,25.06,29.5,121.07,55.89,-104.74,0,1005.94,44.442,30.453472,-84.31871,105.78,NaN,,0,82.99355,,0 / 18,25804,2018-04-26 01:06:21:138,,,
5.2373,-6.7752,-1.3035,5.444,-7.8427,-2.2565,1.0202,-1.5725,0.2674,-0.2977,-0.7352,-0.1581,1.183,-25.72,23.6,30.59,123.47,53.97,-108.79,0,1005.9,56.641,30.453472,-84.31871,105.78,NaN,,0,82.99355,,0 / 18,25904,2018-04-26 01:06:21:238,,,
4.3635,-4.5045,-2.5461,5.3489,-7.8657,-2.3992,0.9705,-3.0235,0.9622,0.009,-0.0162,0.124,1.183,-24.52,22.44,32.93,128.5,52.98,-114.24,0,1005.91,56.641,30.453472,-84.31871,105.78,NaN,,0,82.99355,,0 / 18,26004,2018-04-26 01:06:21:338,,,
5.6921,-5.7879,-3.5956,5.4103,-7.8404,-2.3436,-1.4244,1.6183,0.6438,0.1097,-0.1937,-0.1221,1.183,-24.14,23.8,32.97,123.37,53.06,-113.42,0,1005.91,56.641,30.453472,-84.31871,105.78,NaN,,0,82.99355,,0 / 18,26104,2018-04-26 01:06:21:438,,,
6.2675,-10.6351,-3.3354,5.206,-7.8466,-2.7504,-2.1333,5.7158,-4.406,-0.4983,-0.4515,0.1964,1.183,-23.7,23.1,33.78,130.1,53.12,-117.85,0,1005.94,53.014,30.453472,-84.31871,105.78,NaN,,0,82.99355,,0 / 18,26204,2018-04-26 01:06:21:538,,,
2.9907,-5.8252,-3.1998,5.1938,-7.8448,-2.7783,-3.7526,0.7252,-3.7352,-0.3822,0.0532,-0.0199,1.183,-24.1,22.3,34.01,131.55,53.1,-118.14,0,1006.04,53.014,30.453472,-84.31871,105.78,NaN,,0,82.99355,,0 / 18,26304,2018-04-26 01:06:21:638,,,
6.1195,-7.1617,-0.723,4.8853,-8.2211,-2.1874,0.8005,0.7991,-0.9659,1.0477,-0.0566,0.4988,1.183,-23.49,24.28,32.89,127.88,53.59,-117.6,0,1006.04,53.014,30.453472,-84.31871,105.78,NaN,,0,82.99355,,0 / 18,26405,2018-04-26 01:06:21:739,,,
3.0039,-6.957,-0.8321,4.907,-8.3836,-1.3681,0.5388,-1.2457,-1.7947,0.3372,0.6706,-0.0403,1.183,-23.98,26.3,29.26,126.63,58.24,-110.33,0,1006.06,53.014,30.453472,-84.31871,105.78,NaN,,0,82.99355,,0 / 18,26505,2018-04-26 01:06:21:839,,,
3.3668,-7.6685,-0.4939,4.8452,-8.4616,-1.0781,-1.712,-1.4585,0.4761,0.2397,0.7529,0.1912,1.183,-25.14,27.3,27.73,122.66,58.72,-105.58,0,1006.13,52.331,30.453472,-84.31871,105.78,NaN,,0,82.99355,,0 / 18,26605,2018-04-26 01:06:21:939,,,
6.8859,-7.4362,-1.7113,4.3935,-8.7323,-0.8243,-2.0255,-1.0274,0.7101,0.1221,5.00E-04,0.5404,1.183,-24.47,28.7,27.42,118.13,61.62,-101.41,0,1006.13,52.331,30.453472,-84.31871,105.78,NaN,,0,82.99355,,0 / 18,26704,2018-04-26 01:06:22:038,,,
7.1342,-7.8648,-1.1212,4.5229,-8.6847,-0.5956,-2.3758,2.4473,-1.185,0.5729,-0.504,-0.5744,1.183,-24.51,30.26,25.87,116.03,62.29,-97.5,0,1006.06,52.331,30.453472,-84.31871,105.78,NaN,,0,82.99355,,0 / 18,26804,2018-04-26 01:06:22:138,,,
2.9776,-10.8422,1.0858,5.4581,-8.1373,-0.4788,0.0675,10.4295,-0.1467,0.4695,-0.7584,-1.1224,1.183,-26.04,28.89,26.58,106.39,56.05,-95.01,0,1006.06,57.897,30.453472,-84.31871,105.78,NaN,,0,82.99355,,0 / 18,26905,2018-04-26 01:06:22:239,,,
4.5509,-13.645,-0.2648,5.6345,-8.0147,0.5024,-0.9497,-2.3114,2.6346,1.1558,0.535,0.3141,1.183,-25.11,29.83,25.9,99.96,55.03,-92.9,0,1005.87,57.897,30.453472,-84.31871,105.78,NaN,,0,82.99355,,0 / 18,27004,2018-04-26 01:06:22:338,,,
8.0688,-6.491,-4.0082,5.9508,-7.6706,1.4096,2.2187,-1.9962,1.6924,2.3134,-1.1681,-0.9326,1.183,-25.34,33.03,21.02,78.49,51.44,-76.67,0,1005.85,57.897,30.453472,-84.31871,105.78,NaN,,0,82.99355,,0 / 18,27104,2018-04-26 01:06:22:438,,,
11.5939,-0.3604,-3.2442,7.2932,-6.3932,1.474,-5.9797,-6.4198,0.8172,-2.0793,1.1619,-2.5074,1.183,-29.89,31.27,16.51,83.86,51.14,-67.53,0,1005.87,56.275,30.453472,-84.31871,105.78,NaN,,0,82.99355,,0 / 18,27204,2018-04-26 01:06:22:538,,,
12.4809,-0.6831,1.0918,8.8553,-3.8812,1.6601,-0.1364,3.3957,-3.3418,-1.1709,3.1697,-5.1647,1.183,-38.95,19.89,17.55,106.3,40.67,-78.57,0,1005.87,56.275,30.453472,-84.31871,105.78,NaN,,0,82.99355,,0 / 18,27304,2018-04-26 01:06:22:638,,,
8.9534,-4.5587,6.8335,5.7119,1.2236,7.8812,-2.4794,0.5709,-0.9959,1.1485,7.5527,-3.8342,1.183,-44.85,-7,-2.99,126.81,7.14,-65.03,2,1005.9,56.275,30.453472,-84.31871,105.78,NaN,,0,82.99355,,0 / 18,27404,2018-04-26 01:06:22:738,,,
10.3835,1.7357,6.4857,3.1189,2.8581,8.851,-0.1074,5.0663,-4.1966,0.5262,1.2011,-3.7769,1.183,-28.66,-26.78,-24.46,130.29,-16.94,-19.41,2,1005.9,58.972,30.453472,-84.31871,105.78,NaN,,0,82.99355,,0 / 18,27504,2018-04-26 01:06:22:838,,,
2.8976,-2.0725,12.333,1.1677,4.7015,8.5305,-1.2312,5.1743,0.6513,1.3578,0.9615,-1.5637,1.183,-17.22,-37,-25.11,145.4,-28.64,-7.79,2,1005.93,58.972,30.453472,-84.31871,105.78,NaN,,0,82.99355,,0 / 18,27605,2018-04-26 01:06:22:939,,,
2.2852,-0.4315,7.9586,0.5783,6.5328,7.2955,-1.0218,1.2457,4.4281,1.9089,0.8279,0.6602,1.183,-16.44,-40.11,-21.75,142.89,-35.7,-4.12,2,1005.93,58.972,30.453472,-84.31871,105.78,NaN,,0,82.99355,,0 / 18,27705,2018-04-26 01:06:23:039,,,
0.9137,6.3084,2.9269,0.6816,6.7375,7.0978,0.6522,0.4795,2.8618,-0.0035,-0.3317,0.1029,1.183,-17.84,-41.8,-16.46,138.32,-43.38,-5.49,2,1005.94,58.972,30.453472,-84.31871,105.78,NaN,,0,82.99355,,0 / 18,27805,2018-04-26 01:06:23:139,,,
0.4791,6.424,5.435,1.4564,6.9202,6.7989,1.0795,1.8566,1.6259,0.2286,-0.972,-0.0778,10.564,-18.84,-41.1,-15.59,134.98,-44.86,-12.09,2,1005.94,60.882,30.453472,-84.31871,105.78,NaN,,0,82.99355,,0 / 18,27905,2018-04-26 01:06:23:239,,,
0.663,4.1834,2.3944,2.2336,7.1549,6.3288,1.5254,3.7819,6.8667,-0.5328,-0.3952,0.9883,10.564,-20.85,-41.8,-12.99,134.82,-44.86,-12.09,2,1005.94,60.882,30.453472,-84.31871,105.78,NaN,,0,82.99355,,0 / 18,28005,2018-04-26 01:06:23:339,,,
0.9495,3.119,-0.2924,5.0941,4.0136,7.3605,3.0978,9.8946,7.9668,-2.9825,-1.9789,1.8958,10.564,-28.36,-35.8,-13.44,119.55,-41.56,-23.84,2,1005.93,60.882,30.453472,-84.31871,105.78,NaN,,0,82.99355,,0 / 18,28105,2018-04-26 01:06:23:439,,,
18.1021,-10.1318,9.1664,9.4684,-2.4903,-0.6195,-7.1678,8.9782,-5.5577,0.6706,-9.4078,4.7889,10.564,-44.49,-11.81,7.16,113.86,-1.78,-65.65,2,1005.95,36.014,30.453472,-84.31871,105.78,NaN,,0,82.99355,,0 / 18,28205,2018-04-26 01:06:23:539,,,
15.2121,-9.8634,2.9353,8.1267,-5.1541,-1.9044,-9.9246,-0.4584,-0.8627,1.176,-4.2433,4.9368,10.564,-34.08,12.27,29.3,117.5,31.69,-103.19,2,1005.94,36.014,30.453472,-84.31871,105.78,NaN,,0,82.99355,,0 / 18,28305,2018-04-26 01:06:23:639,,,
13.2138,-4.7946,-1.7293,6.9318,-6.7394,-1.6632,-7.1965,-3.9811,0.7198,-1.9412,1.5264,1.7451,10.564,-33.76,15.96,28.02,120.89,39.37,-101.58,0,1005.94,36.014,30.453472,-84.31871,105.78,NaN,,0,82.99355,,0 / 18,28405,2018-04-26 01:06:23:739,,,
14.9865,-2.8358,-6.4299,7.0426,-6.7941,-0.6917,-1.8444,-3.8324,1.0241,-1.9809,2.8959,0.6545,10.564,-39.42,14.23,21.24,136.81,43.83,-95.61,0,1006.17,54.58,30.453472,-84.31871,105.78,NaN,,0,82.99355,,0 / 18,28505,2018-04-26 01:06:23:839,,,
13.1255,-3.3017,-5.6779,6.8356,-7.036,-0.0779,-5.9442,-2.1005,5.6409,-0.4196,1.2766,0.4026,8.452,-41.52,14.33,14.32,146.57,45.83,-90.65,0,1006.24,54.58,30.453472,-84.31871,105.78,NaN,,0,82.99355,,0 / 18,28605,2018-04-26 01:06:23:939,,,
7.9364,-7.3772,-1.8996,7.1272,-6.6498,-1.1042,-3.7677,1.716,-3.0599,-0.651,-1.5827,-0.0673,8.452,-42.55,12.7,14,149.32,44.89,-91.71,0,1006.24,54.58,30.453472,-84.31871,105.78,NaN,,0,82.99355,,0 / 18,28704,2018-04-26 01:06:24:038,,,
10.6581,-8.6233,2.3392,7.6754,-5.9291,-1.4732,3.8249,3.7702,-3.9292,-0.6417,-0.6035,-1.5292,8.452,-41.82,8.22,17.43,156.65,42.68,-98.81,0,1006.17,48.609,30.453472,-84.31871,105.78,NaN,,0,82.99355,,0 / 18,28804,2018-04-26 01:06:24:138,,,
3.2856,-9.1747,1.8018,7.6775,-5.8739,-1.6698,4.8871,1.3891,-1.9524,2.2394,-1.9159,-0.2977,8.452,-40.56,6.22,20.52,145.34,34.79,-99.54,2,1006.17,48.609,30.453472,-84.31871,105.78,NaN,,0,82.99355,,0 / 18,28905,2018-04-26 01:06:24:239,,,
4.2871,-5.4942,0.5976,7.1108,-6.5074,-1.8238,0.6213,-0.5177,0.3478,4.0167,-3.1769,0.4332,8.452,-31.4,17.93,28.36,119.67,41.56,-104.39,2,1006.13,48.609,30.453472,-84.31871,105.78,NaN,,0,82.99355,,0 / 18,29005,2018-04-26 01:06:24:339,,,
8.0641,-6.8474,-3.6328,6.4716,-7.3388,-0.7048,-2.9562,0.3241,2.7092,2.0872,-0.9595,0.4277,8.452,-26.45,25.05,28.06,103.82,46.26,-102.27,0,1006.09,48.609,30.453472,-84.31871,105.78,NaN,,0,82.99355,,0 / 18,29105,2018-04-26 01:06:24:439,,,
9.3736,-7.6998,-3.2154,6.6166,-7.242,0.0983,-1.9168,1.5777,5.0789,-1.511,1.2137,-0.3812,8.452,-30.44,26.55,23.12,98.92,47.58,-89.15,0,1006.32,40.674,30.453472,-84.31871,105.78,NaN,,0,82.99355,,0 / 18,29204,2018-04-26 01:06:24:538,,,
11.3062,-8.5594,2.3284,6.9718,-6.8495,-0.8457,-3.9589,2.3414,-3.8472,-1.1387,0.1889,-0.3142,10.564,-33.03,21.24,24.02,116.41,44.28,-96.92,0,1006.32,40.674,30.453472,-84.31871,105.78,NaN,,0,82.99355,,0 / 18,29304,2018-04-26 01:06:24:638,,,
5.5501,-8.917,2.9749,7.3638,-6.4778,-0.2207,12.9231,1.1741,8.2284,0.4819,0.9363,-0.6844,10.564,-35.76,17.97,23.08,123.65,41.99,-96.81,0,1006.19,40.674,30.453472,-84.31871,105.78,NaN,,0,82.99355,,0 / 18,29404,2018-04-26 01:06:24:738,,,
-5.591,-7.6541,-8.3454,7.6914,-6.0842,-0.2481,-0.2723,-1.6178,-0.6649,0.5226,-0.1475,-0.6474,10.564,-36.92,17.11,22.58,118.96,41.32,-91.72,0,1006.19,51.144,30.453472,-84.31871,105.78,NaN,,0,82.99355,,0 / 18,29505,2018-04-26 01:06:24:839,,,
7.386,-3.74,0.0207,7.9128,-5.7637,-0.6343,2.2186,-3.6268,1.9009,0.6399,-1.0424,-0.2361,10.564,-36.78,16.73,23.49,112.15,36.29,-92.36,0,1006.17,51.144,30.453472,-84.31871,105.78,NaN,,0,82.99355,,0 / 18,29605,2018-04-26 01:06:24:939,,,
4.57,-3.0549,-0.6966,7.8242,-5.8406,-0.9518,2.6215,-1.983,1.0689,1.0117,-1.2031,0.0341,10.564,-33.56,18.61,27.52,106.11,36.54,-96.94,0,1006.16,51.144,30.453472,-84.31871,105.78,NaN,,0,82.99355,,0 / 18,29705,2018-04-26 01:06:25:039,,,
2.4392,-5.3412,-2.347,6.995,-6.6751,-1.6581,-4.666,1.0889,3.3354,0.7613,-2.1539,1.0846,10.564,-31.44,20.66,27.41,102.94,37.75,-99.77,0,1006.09,47.508,30.453472,-84.31871,105.78,NaN,,0,82.99355,,0 / 18,29805,2018-04-26 01:06:25:139,,,
11.5605,-7.8624,-4.7903,5.6458,-7.8597,-1.6082,-1.3127,2.8186,2.4108,0.7127,-1.2365,1.6394,10.564,-25.36,26.27,29.03,100.87,47.07,-101.6,0,1006.09,47.508,30.453472,-84.31871,105.78,NaN,,0,82.99355,,0 / 18,29904,2018-04-26 01:06:25:238,,,
7.5472,-10.7278,1.7227,4.9094,-8.3401,-1.605,-0.3703,-0.7279,-3.6397,1.1996,-1.9051,1.2208,10.564,-14.5,33.35,29.34,96,58.23,-108.1,0,1006.06,47.508,30.453472,-84.31871,105.78,NaN,,0,82.99355,,0 / 18,30005,2018-04-26 01:06:25:339,,,
1.2049,-2.7334,2.1401,4.4821,-8.6448,-1.1891,-0.4738,1.1677,-2.5356,1.4892,-1.9345,-0.208,0.71,-7.57,38.16,26.31,77.13,61.79,-104.86,0,1006.06,51.639,30.453472,-84.31871,105.78,NaN,,0,82.99355,,0 / 18,30105,2018-04-26 01:06:25:439,,,
5.482,-11.4442,1.9758,4.1003,-8.8745,-0.8164,-1.349,0.8527,-1.7658,0.5344,-0.6216,0.2862,0.71,-5.13,40.49,23.4,65.72,61.79,-104.86,0,1006.05,51.639,30.453472,-84.31871,105.78,NaN,,0,82.99355,,0 / 18,30204,2018-04-26 01:06:25:538,,,
5.3078,-9.8068,1.165,4.3405,-8.758,-0.8333,-1.0718,-2.3488,0.0609,0.8564,-1.1273,-0.7722,0.71,-3.57,42.4,20.1,58.64,64.96,-97.72,0,1006.07,51.639,30.453472,-84.31871,105.78,NaN,,0,82.99355,,0 / 18,30304,2018-04-26 01:06:25:638,,,
6.2735,-5.263,1.2225,4.1513,-8.8552,-0.7668,-1.6461,-0.0949,-2.0431,0.5184,-1.4418,0.155,0.71,0.47,43.35,18.21,48.7,64.51,-100.47,0,1006.07,51.639,30.453472,-84.31871,105.78,NaN,,0,82.99355,,0 / 18,30404,2018-04-26 01:06:25:738,,,
4.7372,-10.2703,0.4945,4.0604,-8.8918,-0.8281,0.1983,-1.4466,-1.523,0.6639,-1.5256,-0.0838,0.71,3.28,44.68,15.48,38.9,65.01,-101.53,0,1006.11,50.394,30.453472,-84.31871,105.78,NaN,,0,82.99355,,0 / 18,30505,2018-04-26 01:06:25:839,,,
3.8323,-7.4626,0.7847,4.2374,-8.756,-1.2702,1.1019,-1.2338,-0.2512,0.2546,-1.4206,-0.3134,0.71,3.21,43.32,14.02,37.78,64.14,-103.37,0,1006.09,50.394,30.453472,-84.31871,105.78,NaN,,0,82.99355,,0 / 18,30605,2018-04-26 01:06:25:939,,,
5.6313,-10.7206,-1.7125,4.2501,-8.7106,-1.5161,-1.0359,1.0627,-0.0411,0.7549,-2.1112,-0.4633,0.71,5.38,44.88,11.95,31.36,62.61,-109.63,0,1006.09,50.394,30.453472,-84.31871,105.78,NaN,,0,82.99355,,0 / 18,30705,2018-04-26 01:06:26:039,,,
4.9329,-9.33,-1.3131,4.4807,-8.5291,-1.8478,-0.5975,-0.1067,-0.6566,0.7813,-2.1258,-0.6584,0.71,3.83,47.69,6.68,18,60.39,-112.41,0,1006.06,31.363,30.453472,-84.31871,105.78,NaN,,0,82.99355,,0 / 18,30805,2018-04-26 01:06:26:139,,,
5.8425,-7.689,0.2462,4.7669,-8.3312,-2.0257,0.4139,-1.213,-2.2883,1.3232,-1.884,-0.6774,0.71,2.59,47.38,4.25,10.64,58.13,-113.02,0,1006.05,31.363,30.453472,-84.31871,105.78,NaN,,0,82.99355,,18-Oct,30904,2018-04-26 01:06:26:238,,,
4.3456,-7.1568,0.5257,4.6528,-8.5203,-1.4116,1.0142,2.288,-1.2865,1.6009,-1.6549,-0.1836,0.71,-0.31,47.31,-2.54,353.69,58.46,-110.27,0,1006.05,31.363,30.453472,-84.31871,105.78,NaN,,0,82.99355,,18-Oct,31004,2018-04-26 01:06:26:338,,,
4.4709,-9.7008,-0.3523,4.3211,-8.7595,-0.9138,0.4957,0.13,-1.3303,0.7289,-0.6898,0.1194,0.71,-0.34,46.37,-8.23,341.89,61.74,-105.14,0,1006.07,39.812,30.453472,-84.31871,105.78,NaN,,0,82.99355,,18-Oct,31104,2018-04-26 01:06:26:438,,,
4.0913,-8.061,0.185,4.075,-8.8999,-0.6498,0.2139,-1.5426,-0.703,0.6627,-0.9481,0.377,0.71,-0.49,45.04,-11.38,332.08,65.12,-99.06,0,1006.07,39.812,30.453472,-84.31871,105.78,NaN,,0,82.99355,,18-Oct,31204,2018-04-26 01:06:26:538,,,
5.4534,-9.1374,-0.2744,3.8126,-9.0308,-0.3804,-2.5965,0.6037,0.1429,0.6782,-1.1136,0.143,0.71,0.3,45.23,-13.3,326.47,66.66,-97.74,0,1006.07,39.812,30.453472,-84.31871,105.78,NaN,,0,82.99355,,18-Oct,31305,2018-04-26 01:06:26:639,,,
5.3376,-9.4853,-0.4963,3.9891,-8.961,-0.1533,-0.367,-0.6227,0.2449,0.7546,-0.8713,-0.2783,0.71,-1.87,43.87,-18.01,312.77,65.99,-92.2,0,1006.09,52.363,30.453472,-84.31871,105.78,NaN,,0,82.99355,,18-Oct,31404,2018-04-26 01:06:26:738,,,
4.0496,-7.9695,0.1742,4.0552,-8.928,0.2859,-0.2829,-0.1399,0.1931,0.7838,-0.7574,0.0322,0.71,-5.37,40.25,-20.97,297.44,65.52,-85.97,0,1006.09,52.363,30.453472,-84.31871,105.78,NaN,,0,82.99355,,18-Oct,31504,2018-04-26 01:06:26:838,,,
5.4391,-8.4198,-0.0189,3.9651,-8.9612,0.459,-2.564,-1.1174,0.0921,0.2688,-0.2696,0.1135,0.71,-5.6,41.56,-22.06,295.43,65.55,-84.89,0,1006.09,52.363,30.453472,-84.31871,105.78,NaN,,0,82.99355,,18-Oct,31604,2018-04-26 01:06:26:938,,,
6.5087,-7.8612,0.4525,3.755,-9.0434,0.594,-2.7546,-0.8588,0.3192,0.4142,-0.4319,0.3832,0.71,-6.63,39.77,-22.28,289.88,65.99,-83.4,0,1006.06,52.363,30.453472,-84.31871,105.78,NaN,,0,82.99355,,18-Oct,31705,2018-04-26 01:06:27:039,,,
6.511,-8.415,-0.2132,3.5171,-9.1363,0.6283,-1.7361,0.467,0.0429,0.2012,-0.5788,0.2533,0.71,-5.53,39.17,-23.6,282.61,68.05,-79.46,0,1006.07,48.866,30.453472,-84.31871,105.78,NaN,,0,82.99355,,18-Oct,31805,2018-04-26 01:06:27:139,,,
4.5569,-10.0355,2.825,3.7367,-9.0621,0.3887,3.3937,1.4838,-0.9603,-0.4715,-1.0604,-0.608,0.71,-9.4,39.15,-23.36,281.51,67.48,-84.06,0,1006.07,48.866,30.453472,-84.31871,105.78,NaN,,0,82.99355,,0 / 18,31905,2018-04-26 01:06:27:239,,,
2.6887,-10.4991,-0.3943,4.3881,-8.7134,-1.0285,-0.6948,-1.0414,0.2128,-1.1259,-0.4516,-0.5816,0.71,-11.72,39.03,-20.81,285.71,65.52,-92.38,0,1006.02,48.866,30.453472,-84.31871,105.78,NaN,,0,82.99355,,0 / 18,32005,2018-04-26 01:06:27:339,,,
5.1132,-7.6312,-1.3443,4.6491,-8.4516,-1.7869,0.241,-0.3634,-0.6061,-0.1761,-1.559,-0.65,0.71,-17.3,40.35,-15,299.29,59.49,-111.02,0,1006.02,49.534,30.453472,-84.31871,105.78,NaN,,0,82.99355,,0 / 18,32104,2018-04-26 01:06:27:438,,,
4.0699,-8.4547,-2.0376,5.0442,-7.9559,-2.7379,0.7844,-0.9234,-0.2324,-0.4197,-0.836,-0.6689,0.71,-21.83,39.04,-11.9,299.24,54.19,-118.49,0,1005.96,49.534,30.453472,-84.31871,105.78,NaN,,0,82.99355,,0 / 18,32205,2018-04-26 01:06:27:539,,,
4.4125,-6.2888,-2.9803,5.1356,-7.9189,-2.6744,-0.0184,-1.659,0.5466,0.3815,-0.0975,-0.0809,0.71,-23.49,37.49,-11.71,294.84,53.83,-117.51,0,1005.96,49.534,30.453472,-84.31871,105.78,NaN,,0,82.99355,,0 / 18,32304,2018-04-26 01:06:27:638,,,
6.1219,-6.6957,-4.8802,5.1824,-7.9533,-2.4746,-1.0153,-1.2977,2.5058,0.1946,-0.172,-0.2705,0.71,-23.93,37.98,-12.63,292.69,54.17,-115.52,0,1005.98,45.986,30.453472,-84.31871,105.78,NaN,,0,82.99355,,0 / 18,32405,2018-04-26 01:06:27:739,,,Out
5.9703,-8.734,-2.4046,5.2963,-7.7647,-2.8097,-0.9319,6.0072,4.2238,-0.0743,-0.2423,-0.1583,0.71,-24.76,36.3,-13.5,288.31,53.58,-114.23,0,1005.98,45.986,30.453472,-84.31871,105.78,NaN,,0,82.99355,,0 / 18,32504,2018-04-26 01:06:27:838,,,Out
7.5317,-18.0889,1.941,5.2263,-7.8376,-2.7374,3.4001,-3.472,-1.0731,-0.5324,0.1956,0.0316,0.71,-23.98,37.82,-11.82,295.36,53.03,-117.64,0,1006.05,45.986,30.453472,-84.31871,105.78,NaN,,0,82.99355,,0 / 18,32604,2018-04-26 01:06:27:938,,,Out
9.1205,-10.9397,0.6264,4.9949,-8.0955,-2.3977,3.0052,-0.0282,-1.2205,0.7816,-0.0205,0.3275,0.71,-24.02,37.67,-12.28,296.35,52.65,-118.82,0,1006.05,43.755,30.453472,-84.31871,105.78,NaN,,0,82.99355,,0 / 18,32705,2018-04-26 01:06:28:039,,,Out
2.863,-8.3138,-1.4055,5.08,-8.2027,-1.7735,0.1848,0.4061,-1.4749,0.1347,0.889,-0.1022,0.71,-20.58,37.6,-15.59,292.58,57.28,-113,0,1006.08,43.755,30.453472,-84.31871,105.78,NaN,,0,82.99355,,0 / 18,32804,2018-04-26 01:06:28:138,,,Out
5.4045,-7.0449,-1.5398,5.0479,-8.2587,-1.5964,-1.5455,-2.0242,0.5901,0.2839,0.1534,0.4502,0.71,-19.74,38.28,-15.91,291.8,57.34,-107.55,0,1006.16,43.755,30.453472,-84.31871,105.78,NaN,,0,82.99355,,0 / 18,32905,2018-04-26 01:06:28:239,,,Out
6.5624,-6.6199,-2.1839,4.5851,-8.5894,-1.1983,-0.9705,-0.3068,0.4792,0.4706,-0.1521,0.4322,0.71,-17.54,37.75,-18.44,287.9,61.11,-104.65,0,1006.16,43.755,30.453472,-84.31871,105.78,NaN,,0,82.99355,,0 / 18,33004,2018-04-26 01:06:28:338,,,Out
6.0992,-9.0591,-1.7029,4.4391,-8.7082,-0.8359,-2.3218,1.9458,-1.8163,0.4899,0.2384,0.0189,0.71,-17.35,38.48,-19.9,284.63,62.58,-100.66,0,1006.16,44.013,30.453472,-84.31871,105.78,NaN,,0,82.99355,,0 / 18,33105,2018-04-26 01:06:28:439,,,Out
6.9455,-11.2262,-0.1113,4.9149,-8.4609,-0.7017,2.6108,2.2145,-1.9145,0.1821,-0.2542,-0.6221,0.71,-18.07,36.33,-20.93,277.73,62.21,-96.64,0,1005.95,44.013,30.453472,-84.31871,105.78,NaN,,0,82.99355,,0 / 18,33204,2018-04-26 01:06:28:538,,,Out
3.2736,-13.7161,-1.5482,5.7236,-7.7221,-1.9614,-0.1999,0.0377,-0.5108,-1.8843,0.5529,-0.8048,0.71,-21.29,36.69,-17.05,287.26,56.52,-103.36,0,1005.95,44.013,30.453472,-84.31871,105.78,NaN,,0,82.99355,,0 / 18,33304,2018-04-26 01:06:28:638,,,Out
5.8903,-7.4169,-1.6525,6.0475,-7.3654,-2.327,1.1407,-1.3744,0.1183,-0.5737,-0.4701,-0.9191,0.71,-22.64,37.01,-13.75,294.11,51.92,-108.92,0,1005.95,54.599,30.453472,-84.31871,105.78,NaN,,0,82.99355,,0 / 18,33405,2018-04-26 01:06:28:739,,,Out
4.7658,-6.479,-2.4706,6.0832,-7.1496,-2.8484,1.7292,-2.5791,0.2513,-0.1163,-0.3468,-0.1007,0.71,-27.05,36.26,-10.12,295.4,46.97,-114.47,0,1005.95,54.599,30.453472,-84.31871,105.78,NaN,,0,82.99355,,0 / 18,33504,2018-04-26 01:06:28:838,,,Out
4.7192,-4.4985,-3.6736,6.0968,-7.1995,-2.6895,-0.0582,-0.8061,1.9235,0.1538,-0.1907,-0.1266,0.71,-25.79,35.26,-12.11,294.69,47.21,-113.8,0,1005.98,54.599,30.453472,-84.31871,105.78,NaN,,0,82.99355,,0 / 18,33605,2018-04-26 01:06:28:939,,,Out
6.6961,-9.1614,-5.7666,6.1034,-7.2424,-2.5558,-1.5355,8.2359,2.6718,0.4254,0.2712,-0.0025,0.71,-26.99,35.42,-12.44,291.9,47.58,-112.72,0,1006,43.754,30.453472,-84.31871,105.78,NaN,,0,82.99355,,0 / 18,33705,2018-04-26 01:06:29:039,,,Out
11.0914,-16.2757,2.9281,5.9035,-7.6026,-1.8932,-3.1669,7.1083,-6.7984,2.4891,1.0203,0.9483,0.71,-25.76,33.85,-14.54,284.75,50.8,-107.78,0,1005.88,43.754,30.453472,-84.31871,105.78,NaN,,0,82.99355,,0 / 18,33805,2018-04-26 01:06:29:139,,,Out
7.2404,-13.3344,-0.8129,5.9114,-7.5183,2.1832,-3.2387,-2.9806,6.9852,4.5034,1.1092,0.308,0.71,-20.26,25.42,-30.26,253.5,50.03,-69.73,0,1005.88,43.754,30.453472,-84.31871,105.78,NaN,,0,82.99355,,0 / 18,33904,2018-04-26 01:06:29:238,,,Out
15.0307,1.3251,-1.6142,9.2194,-2.6793,2.0147,-3.856,-4.3624,0.4919,-1.7569,0.5914,-5.9148,0.71,-28.78,14.24,-30.99,242.18,38.68,-74.57,0,1005.9,54.012,30.453472,-84.31871,105.78,NaN,,0,82.99355,,0 / 18,34005,2018-04-26 01:06:29:339,,,Out
11.2812,0.2416,1.2609,9.0071,2.5119,2.9661,4.7907,9.4623,-1.2439,-1.8555,2.5085,-8.4763,0.71,-30.08,4.71,-33.03,258.79,15.85,-77.67,2,1005.9,54.012,30.453472,-84.31871,105.78,NaN,,0,82.99355,,0 / 18,34104,2018-04-26 01:06:29:438,,,Out
2.4643,-3.2921,6.2794,1.9762,6.5819,7.0007,1.5964,5.9997,0.2487,-0.9827,6.2438,-5.2319,0.71,-9.63,-11.9,-43.93,294.02,-35.31,-47.88,2,1005.94,54.012,30.453472,-84.31871,105.78,NaN,,0,82.99355,,0 / 18,34205,2018-04-26 01:06:29:539,,,Out
0.8731,1.8645,5.6485,0.3315,6.3589,7.4626,-1.2974,2.104,-2.9959,0.1056,0.8499,-1.1864,8.452,10.11,-8.78,-44.26,330.78,-40.41,-2.54,2,1005.98,54.012,30.453472,-84.31871,105.78,NaN,,0,82.99355,,0 / 18,34305,2018-04-26 01:06:29:639,,,Out
-0.2407,5.4547,5.5489,-0.0295,6.2858,7.5315,-1.2989,1.6215,-3.1945,0.0056,0.3795,0.1848,8.452,12.02,-8.83,-44.23,330.97,-39.85,0.22,2,1005.99,53.582,30.453472,-84.31871,105.78,NaN,,0,82.99355,,0 / 18,34404,2018-04-26 01:06:29:738,,,Out
1.8042,4.8829,6.0491,1.4281,6.033,7.6026,-0.5128,1.0703,1.4176,0.3021,-0.9541,0.601,8.452,8.84,-5.94,-45.6,326.09,-37.28,-7.45,2,1005.99,53.582,30.453472,-84.31871,105.78,NaN,,0,82.99355,,0 / 18,34505,2018-04-26 01:06:29:839,,,Out
2.5001,4.0449,6.9955,1.6113,5.7607,7.7752,-0.6329,1.9225,0.8494,-0.1469,-0.5936,-0.1669,8.452,5.39,-6.47,-46.44,325.87,-35.96,-11.71,2,1005.99,53.582,30.453472,-84.31871,105.78,NaN,,0,82.99355,,0 / 18,34605,2018-04-26 01:06:29:939,,,Out
2.1945,6.5732,6.7208,2.0082,5.7783,7.6691,-0.3212,-0.288,0.8389,-0.0134,-0.7704,-0.3143,8.452,2.75,-6.09,-46.37,327.14,-36.36,-13.6,2,1005.99,34.157,30.453472,-84.31871,105.78,NaN,,0,82.99355,,0 / 18,34704,2018-04-26 01:06:30:038,,,Out
1.3315,5.4343,5.6185,1.9077,5.609,7.8189,0.878,0.5677,2.2702,-0.5132,-0.784,0.0674,8.452,0.6,-3.59,-45.54,331.79,-34.87,-13.71,2,1006,34.157,30.453472,-84.31871,105.78,NaN,,0,82.99355,,0 / 18,34805,2018-04-26 01:06:30:139,,,Out
4.3587,0.6954,2.3404,5.0007,5.0145,6.7885,1.3225,2.4693,4.3744,0.1253,-2.8417,1.5032,8.452,-4.56,-3.38,-45.67,335.2,-33.12,-18.98,2,1006,34.157,30.453472,-84.31871,105.78,NaN,,0,82.99355,,0 / 18,34904,2018-04-26 01:06:30:238,,,Out
12.3066,-4.313,5.8871,9.6505,0.2979,1.7362,-3.0089,6.81,-1.7968,-0.8175,-5.4773,5.0334,17.959,-30.24,3.11,-34.8,319.01,-21.1,-60.85,2,1006,31.399,30.453472,-84.31871,105.78,NaN,,0,82.99355,,0 / 18,35005,2018-04-26 01:06:30:339,,,Out
13.5409,-7.7516,3.2916,9.4586,-2.5833,-0.3125,-4.3573,4.5677,-3.8846,-0.404,-4.2343,4.9032,17.959,-35.13,24.2,-19.02,305,15.27,-91.89,2,1005.99,31.399,30.453472,-84.31871,105.78,NaN,,0,82.99355,,0 / 18,35104,2018-04-26 01:06:30:438,,,Out
12.4248,-4.9945,0.2846,7.0867,-6.5069,-1.917,-5.3126,-1.3283,-2.3081,0.5176,-2.4278,3.4113,17.959,-28.18,33.45,-13.83,311.03,30.27,-98.19,2,1005.99,31.399,30.453472,-84.31871,105.78,NaN,,0,82.99355,,0 / 18,35204,2018-04-26 01:06:30:538,,,Out
10.2856,-3.2355,-6.5451,6.5978,-7.2015,-0.9182,-6.6751,-4.6469,4.7537,-1.1749,2.9286,0.1735,17.959,-18.8,39.66,-14.99,310.38,47.23,-97.92,0,1005.99,49.772,30.453472,-84.31871,105.78,NaN,,0,82.99355,,0 / 18,35304,2018-04-26 01:06:30:638,,,Out
6.5862,-5.5531,-1.2375,7.1872,-6.5747,-1.1635,-0.206,-2.0418,0.0748,-1.4633,0.3812,-0.6516,17.959,-16.9,42.42,-11.22,327.25,42.08,-99.2,0,1005.98,49.772,30.453472,-84.31871,105.78,NaN,,0,82.99355,,0 / 18,35404,2018-04-26 01:06:30:738,,,Out
7.9948,-7.0557,-1.0588,7.5499,-6.1793,-1.0254,-0.9392,0.928,-0.3455,-1.4082,0.8801,-0.3017,17.959,-17.59,41.42,-10.24,330.11,39.04,-97.73,0,1005.99,49.772,30.453472,-84.31871,105.78,NaN,,0,82.99355,,0 / 18,35504,2018-04-26 01:06:30:838,,,
9.1038,-9.0675,1.2957,7.8508,-5.7537,-1.223,-1.1264,3.9094,-4.0133,-1.4752,0.6659,-0.2937,17.959,-19.32,42.46,-5.5,340.09,37.44,-99.73,2,1005.99,49.772,30.453472,-84.31871,105.78,NaN,,0,82.99355,,0 / 18,35604,2018-04-26 01:06:30:938,,,
9.8714,-7.2869,-2.335,8.4132,-4.9713,0.8606,-1.692,1.9749,1.8642,1.4893,0.9535,-1.0326,17.959,-21.48,41.02,-8.12,336.26,35.1,-94.49,2,1006,53.695,30.453472,-84.31871,105.78,NaN,,0,82.99355,,0 / 18,35705,2018-04-26 01:06:31:039,,,
15.4401,-3.5582,1.153,8.1059,-3.7048,4.0994,-8.0278,0.132,4.4755,-1.3399,5.7183,-2.4036,4.226,-22.08,36.59,-18.34,345.53,22.19,-63.17,2,1006,53.695,30.453472,-84.31871,105.78,NaN,,0,82.99355,,0 / 18,35805,2018-04-26 01:06:31:139,,,
-3.9962,-5.2895,8.1061,0.5889,-2.0141,9.5829,3.9831,3.4492,1.1934,-0.7511,9.3351,-4.0971,4.226,-17.09,34.12,-23.62,7.15,16.73,-29.4,2,1006.02,53.695,30.453472,-84.31871,105.78,NaN,,0,82.99355,,0 / 18,35905,2018-04-26 01:06:31:239,,,
-1.851,-1.2393,7.3601,-0.2874,0.1431,9.8047,3.4098,2.7974,2.9559,4.0999,-1.6639,0.6239,4.226,-6.99,23.94,-37.52,18.28,-0.84,1.68,2,1006.03,57.508,30.453472,-84.31871,105.78,NaN,,0,82.99355,,0 / 18,36005,2018-04-26 01:06:31:339,,,
1.9092,1.7188,3.8829,2.1431,4.3102,8.5478,0.0358,2.3792,4.151,3.5032,-2.0563,0.4613,4.226,-14.92,5.92,-41.4,10.6,-26.06,-14.08,2,1006.03,57.508,30.453472,-84.31871,105.78,NaN,,0,82.99355,,0 / 18,36105,2018-04-26 01:06:31:439,,,
-0.255,0.12,-2.4574,2.3325,5.2792,7.9326,2.9737,5.9449,9.9609,-0.2726,0.6544,0.0168,4.226,-17.94,0.69,-40.86,12.98,-32.56,-16.39,2,1006.03,57.508,30.453472,-84.31871,105.78,NaN,,0,82.99355,,0 / 18,36205,2018-04-26 01:06:31:539,,,
6.2806,-7.2267,6.1102,3.3261,1.7345,9.0645,-4.6792,7.8058,0.3112,-4.3662,-0.8383,0.5734,4.226,-16.85,9.73,-39.76,14.4,-25.95,-13.59,2,1006.04,59.437,30.453472,-84.31871,105.78,NaN,,0,82.99355,,0 / 18,36305,2018-04-26 01:06:31:639,,,
16.8404,-6.119,3.8157,8.4949,-2.6277,4.1434,-9.8009,5.8041,-3.6751,0.2723,-6.2319,4.7199,4.226,-32.48,26.43,-19.49,8.68,0.11,-53.19,2,1006.03,59.437,30.453472,-84.31871,105.78,NaN,,0,82.99355,,0 / 18,36405,2018-04-26 01:06:31:739,,,
11.8971,-5.9444,5.9184,8.0372,-4.3584,3.5559,-5.4681,0.8915,-3.0336,-0.0413,-1.2252,0.858,8.452,-22.5,39.56,-9.55,0.37,26.38,-66.13,0,1006.03,59.437,30.453472,-84.31871,105.78,NaN,,0,82.99355,,0 / 18,36505,2018-04-26 01:06:31:839,,,
6.0682,-3.6328,9.6474,7.5749,-5.1664,3.4879,1.8272,-0.9524,-5.327,-0.2957,0.795,1.0291,8.452,-20.95,40.56,-10.27,356.46,28.32,-68.36,0,1006.03,53.869,30.453472,-84.31871,105.78,NaN,,0,82.99355,,0 / 18,36605,2018-04-26 01:06:31:939,,,
6.3391,-4.9596,4.0916,7.595,-5.9097,1.9045,0.0973,-1.8894,6.6254,-2.1321,-1.4453,0.044,8.452,-16.76,41.88,-9.6,355.12,33.44,-65.56,0,1006.03,53.869,30.453472,-84.31871,105.78,NaN,,0,82.99355,,0 / 18,36704,2018-04-26 01:06:32:038,,,
4.4411,-6.6849,-0.8153,6.9557,-6.8854,0.6675,1.1326,-0.4706,0.5033,-2.5665,-0.4559,1.1654,8.452,-14.4,44.63,4.7,15.61,44.58,-84.52,0,1006.07,53.869,30.453472,-84.31871,105.78,NaN,,0,82.99355,,0 / 18,36805,2018-04-26 01:06:32:139,,,
7.1736,-8.9267,1.8295,4.7466,-8.4968,-1.2289,-3.3274,0.5023,0.081,-1.767,0.5548,2.3328,8.452,-1.68,43.98,16.91,43.83,60.01,-104.51,0,1006.05,53.869,30.453472,-84.31871,105.78,NaN,,0,82.99355,,0 / 18,36904,2018-04-26 01:06:32:238,,,
5.8688,-10.8301,-1.6921,4.0886,-8.7874,-1.5167,-2.1614,0.8394,2.6442,-0.9958,1.6611,1.4121,8.452,1.11,41.74,20.88,50,60.01,-104.51,0,1006.04,54.786,30.453472,-84.31871,105.78,NaN,,0,82.99355,,0 / 18,37005,2018-04-26 01:06:32:339,,,
3.9541,-9.7165,-3.7096,3.2583,-9.142,-1.4294,-1.694,-0.9976,0.9408,-0.1282,1.094,0.8995,8.452,3.67,41.12,23.42,64.36,67.35,-112.93,0,1006.04,54.786,30.453472,-84.31871,105.78,NaN,,0,82.99355,,0 / 18,37104,2018-04-26 01:06:32:438,,,
0.1127,-4.891,-1.3623,3.437,-9.0587,-1.5373,3.1634,-4.1662,-0.1088,-0.4201,0.7601,-0.6483,0.946,1.37,39.21,25.88,76.02,67.43,-114.1,0,1005.99,54.786,30.453472,-84.31871,105.78,NaN,,0,82.99355,,0 / 18,37205,2018-04-26 01:06:32:539,,,
3.7368,-9.1289,-2.834,4.1805,-8.7382,-1.5505,-0.1568,1.0181,1.1379,-0.5819,1.3977,-0.4731,0.946,-5.02,37.04,27.76,80.81,62.97,-110.35,0,1005.99,53.637,30.453472,-84.31871,105.78,NaN,,0,82.99355,,0 / 18,37304,2018-04-26 01:06:32:638,,,
4.989,-9.5142,-3.4421,4.06,-8.8262,-1.3602,-1.9688,2.2609,2.4173,-0.499,1.2707,0.3032,0.946,-6.06,36.58,27.88,82.22,63.72,-108.35,0,1006.05,53.637,30.453472,-84.31871,105.78,NaN,,0,82.99355,,0 / 18,37405,2018-04-26 01:06:32:739,,,
4.2764,-6.5874,-1.1908,4.0474,-8.8135,-1.4753,0.2699,-1.3824,1.4047,-0.361,0.8491,0.045,0.946,-7.05,35.74,29.37,87.75,63.95,-110.03,0,1006.06,53.637,30.453472,-84.31871,105.78,NaN,,0,82.99355,,0 / 18,37505,2018-04-26 01:06:32:839,,,
3.972,-9.0615,-0.3176,3.9929,-8.8801,-1.1985,0.1038,0.5234,-0.5461,-0.0369,0.8283,0.2922,0.946,-9.98,35.18,28.65,93.09,64.85,-106.71,0,1006.06,56.084,30.453472,-84.31871,105.78,NaN,,0,82.99355,,0 / 18,37605,2018-04-26 01:06:32:939,,,
6.6841,-7.7745,0.0687,4.0085,-8.8915,-1.0533,-2.9278,-0.6997,-0.726,-0.1841,0.9496,-0.0929,0.946,-10.88,34.8,29.39,93.48,65.01,-104.72,0,1006.05,56.084,30.453472,-84.31871,105.78,NaN,,0,82.99355,,0 / 18,37704,2018-04-26 01:06:33:038,,,
4.2955,-8.6522,-0.651,4.2144,-8.8352,-0.6436,-1.618,0.2802,0.3038,0.1544,0.5263,-0.0932,0.946,-13.92,34.76,28.26,95.56,64.37,-101.82,0,1006.05,56.084,30.453472,-84.31871,105.78,NaN,,0,82.99355,,0 / 18,37804,2018-04-26 01:06:33:138,,,
4.7145,-7.8527,-0.9269,4.1274,-8.8947,-0.2919,-0.5694,-0.9968,0.6345,0.0165,0.5439,0.1179,1.183,-14.78,34.59,25.89,92.32,64.67,-96.05,0,1006.09,37.803,30.453472,-84.31871,105.78,NaN,,0,82.99355,,0 / 18,37905,2018-04-26 01:06:33:239,,,
4.8804,-7.5048,-1.1008,3.9995,-8.9573,-0.0803,-0.5038,-1.7527,1.4025,0.1855,0.4453,0.1883,1.183,-15.9,35.73,24.52,90.89,65.93,-91.15,0,1006.1,37.803,30.453472,-84.31871,105.78,NaN,,0,82.99355,,0 / 18,38004,2018-04-26 01:06:33:338,,,
4.9317,-8.1911,-1.6585,3.4645,-9.1756,0.2056,-2.6819,-0.728,2.1749,0.1135,0.354,0.5201,1.183,-14.78,37.62,24.58,87.29,67.52,-88.7,0,1006.1,37.803,30.453472,-84.31871,105.78,NaN,,0,82.99355,,0 / 18,38105,2018-04-26 01:06:33:439,,,
6.1362,-8.4812,-1.7593,3.2353,-9.2536,0.3748,-1.5136,0.6115,1.6354,0.1564,0.4527,0.1448,1.183,-13.72,37.89,23.69,85.28,70.61,-83.39,0,1006.14,37.803,30.453472,-84.31871,105.78,NaN,,0,82.99355,,0 / 18,38204,2018-04-26 01:06:33:538,,,
4.2716,-9.6009,2.0394,3.7933,-9.038,0.401,2.1418,2.1459,-0.7321,-0.04,0.1257,-0.7139,1.183,-17.13,37.3,22.9,87.59,67.12,-83.97,0,1006.03,50.631,30.453472,-84.31871,105.78,NaN,,0,82.99355,,0 / 18,38305,2018-04-26 01:06:33:639,,,
2.3115,-13.2525,-0.134,4.4912,-8.6692,-0.9542,-0.5937,-0.1658,0.0271,-1.7001,0.6378,-0.5486,1.183,-17.8,34.94,25.85,96.1,64.53,-93.64,0,1006.01,50.631,30.453472,-84.31871,105.78,NaN,,0,82.99355,,0 / 18,38405,2018-04-26 01:06:33:739,,,
3.7595,-7.9117,-0.9917,4.5586,-8.5722,-1.4046,0.8158,-0.6411,-0.0217,-0.7743,-0.2437,-0.2926,1.183,-20.85,30.69,29.31,110.49,62.09,-101.99,0,1006.01,50.631,30.453472,-84.31871,105.78,NaN,,0,82.99355,,0 / 18,38505,2018-04-26 01:06:33:839,,,
4.1558,-8.7292,-1.9044,4.4424,-8.4824,-2.1333,0.4912,-2.8436,0.3991,-0.5878,-0.0987,0.1107,1.183,-20,28.15,32.64,119.56,60.13,-112.38,0,1005.98,51.968,30.453472,-84.31871,105.78,NaN,,0,82.99355,,0 / 18,38604,2018-04-26 01:06:33:938,,,
4.2525,-5.4544,-3.3653,4.4377,-8.4855,-2.1307,0.0562,-0.83,1.8216,0.0932,-0.0561,-0.098,1.183,-19.48,27.58,31.51,121.72,59.88,-115.65,0,1005.98,51.968,30.453472,-84.31871,105.78,NaN,,0,82.99355,,0 / 18,38704,2018-04-26 01:06:34:038,,,
4.8279,-9.8248,-3.8247,4.4715,-8.4363,-2.2518,-0.6574,5.098,2.7015,-0.1044,0.1841,-0.0183,1.183,-19.47,27.92,32.74,120.67,59.46,-115.55,0,1005.99,51.968,30.453472,-84.31871,105.78,NaN,,0,82.99355,,0 / 18,38804,2018-04-26 01:06:34:138,,,
4.1833,-11.3274,-6.6806,4.4302,-8.3813,-2.5226,0.1459,-0.4131,-0.3469,-0.3484,0.7376,0.3812,1.183,-19.84,25.98,33.76,128.64,58.69,-119.66,0,1006,44.764,30.453472,-84.31871,105.78,NaN,,0,82.99355,,0 / 18,38904,2018-04-26 01:06:34:238,,,
4.5509,-7.0039,0.5173,4.1968,-8.5643,-2.297,-1.0327,0.2378,-2.4198,0.1726,-0.0088,0.129,1.183,-19.83,27.21,33.38,129.56,60.81,-118.69,0,1006.01,44.764,30.453472,-84.31871,105.78,NaN,,0,82.99355,,0 / 18,39005,2018-04-26 01:06:34:339,,,
4.4662,-9.0988,0.0387,3.9165,-8.8628,-1.5323,0.3758,-1.4067,-1.692,0.1744,0.8232,0.304,1.183,-19.93,29.39,31.75,127.17,64.16,-114.64,0,1006.01,44.764,30.453472,-84.31871,105.78,NaN,,0,82.99355,,0 / 18,39105,2018-04-26 01:06:34:439,,,
4.4447,-7.8455,0.209,3.9619,-8.8935,-1.2023,-1.8085,-1.5093,-0.2789,0.2633,0.4676,0.3283,1.183,-22.47,29.55,28.8,123.35,65.04,-106.88,0,1006.07,44.918,30.453472,-84.31871,105.78,NaN,,0,82.99355,,0 / 18,39205,2018-04-26 01:06:34:539,,,
5.3973,-7.6071,-0.8849,3.4951,-9.1217,-0.9031,-1.1268,-0.3646,2.1522,0.1287,0.1552,0.5213,1.183,-21.31,32.33,27.56,119.81,66.88,-104.4,0,1006.07,44.918,30.453472,-84.31871,105.78,NaN,,0,82.99355,,0 / 18,39304,2018-04-26 01:06:34:638,,,
6.357,-8.4415,-1.1752,3.3869,-9.1647,-0.8794,-2.6654,-0.1426,0.9931,-0.0912,0.3746,-0.0309,1.183,-22.29,33.04,27.41,125.06,69.1,-104.56,0,1006.1,44.918,30.453472,-84.31871,105.78,NaN,,0,82.99355,,0 / 18,39404,2018-04-26 01:06:34:738,,,
6.1601,-10.2619,-0.8777,3.7692,-9.0294,-0.7068,1.3424,5.1714,-1.3453,0.2079,0.0538,-0.3341,1.183,-22.19,31.76,27.12,123.22,68.58,-103.1,0,1006.06,44.918,30.453472,-84.31871,105.78,NaN,,0,82.99355,,0 / 18,39504,2018-04-26 01:06:34:838,,,
3.171,-15.0765,-0.2192,4.2653,-8.8144,-0.5906,0.649,4.8039,-0.4243,0.2903,-0.8347,-0.4386,1.183,-21.85,31.33,27.83,115.72,65.23,-100.57,0,1006.06,53.885,30.453472,-84.31871,105.78,NaN,,0,82.99355,,0 / 18,39605,2018-04-26 01:06:34:939,,,
2.0537,-9.997,0.0627,4.2995,-8.8089,0.3912,-2.4214,0.7679,4.3404,1.094,0.5681,-0.2497,1.183,-24.12,33.85,23.66,99.89,63.89,-84.8,0,1005.93,53.885,30.453472,-84.31871,105.78,NaN,,0,82.99355,,0 / 18,39705,2018-04-26 01:06:35:039,,,
7.4111,-8.4716,-2.7956,5.7727,-7.2804,3.1477,-10.4195,-5.4629,5.2796,2.3247,1.871,-1.8924,1.183,-25.45,35.67,18.89,81.95,60.04,-68.68,0,1005.93,53.885,30.453472,-84.31871,105.78,NaN,,0,82.99355,,0 / 18,39805,2018-04-26 01:06:35:139,,,
14.5711,-3.1223,2.5683,7.8946,-4.5402,3.6468,-6.2164,-0.8606,-2.4966,-0.575,2.8865,-8.7526,1.183,-41.42,19.84,7.76,85.2,27.57,-65.21,0,1005.9,54.473,30.453472,-84.31871,105.78,NaN,,0,82.99355,,18-Sep,39904,2018-04-26 01:06:35:238,,,
11.3826,-6.0191,5.5969,6.1951,4.1754,6.3578,4.2435,7.8889,1.1389,0.6005,2.9173,-8.7149,1.183,-37.74,-28.01,-7.14,118.08,-25.19,-44.26,2,1005.92,54.473,30.453472,-84.31871,105.78,NaN,,0,82.99355,,18-Sep,40005,2018-04-26 01:06:35:339,,,
3.5315,2.2763,6.0803,4.0926,6.0293,6.5677,-0.7705,0.1628,1.5393,1.6043,1.5396,-3.2312,1.056,-18.06,-44.46,-8.51,156.48,-37.92,-31.93,2,1005.94,54.473,30.453472,-84.31871,105.78,NaN,,0,82.99355,,18-Sep,40105,2018-04-26 01:06:35:439,,,
3.2892,6.0953,4.7945,1.4428,7.1259,6.586,0.2288,3.55,-1.7234,0.1445,0.2519,-2.2388,1.056,-10.02,-46.86,-7.81,164.24,-48.12,-20.63,2,1005.94,52.808,30.453472,-84.31871,105.78,NaN,,0,82.99355,,18-Sep,40205,2018-04-26 01:06:35:539,,,
0.1473,3.5705,8.5619,1.2828,6.7824,6.9706,-0.1026,2.8191,-0.6712,0.1578,0.3955,0.8052,1.056,-8.74,-46.15,-12.06,163.54,-42.53,-7.26,2,1005.94,52.808,30.453472,-84.31871,105.78,NaN,,0,82.99355,,18-Sep,40305,2018-04-26 01:06:35:639,,,
1.5988,4.6156,7.859,1.5289,7.1564,6.5333,-0.1133,0.9912,1.6835,1.002,0.1815,0.9536,1.056,-13.46,-46.22,-8.72,155.16,-46.84,-13.17,2,1005.94,52.808,30.453472,-84.31871,105.78,NaN,,0,82.99355,,18-Sep,40404,2018-04-26 01:06:35:738,,,
1.8579,6.548,5.4338,1.6298,7.8211,5.693,0.9722,1.3508,1.2585,0.8669,0.1702,0.0634,1.056,-14.69,-45.93,-6.65,149.76,-49.79,-16.12,2,1005.94,40.735,30.453472,-84.31871,105.78,NaN,,0,82.99355,,18-Sep,40504,2018-04-26 01:06:35:838,,,
0.8193,6.5865,3.8421,1.7038,8.0391,5.3578,0.1062,1.2357,2.0191,0.3812,0.3702,0.6213,1.056,-14.86,-46.64,-3.45,147.32,-55.03,-17.64,2,1005.94,40.735,30.453472,-84.31871,105.78,NaN,,0,82.99355,,18-Sep,40604,2018-04-26 01:06:35:938,,,
2.0429,7.2655,3.0889,1.9818,7.6347,5.8326,0.0531,2.3454,3.4409,-0.4731,0.9645,0.8828,1.056,-18.75,-44.39,-3.97,140.03,-51.1,-18.77,2,1005.94,40.735,30.453472,-84.31871,105.78,NaN,,0,82.99355,,18-Sep,40705,2018-04-26 01:06:36:039,,,
1.0808,3.4357,6.5792,3.4333,3.5874,8.4604,-2.6749,5.8517,-0.6723,-4.5853,-0.0149,1.9194,10.564,-24.58,-34.88,-22.89,121.67,-36.27,-14.78,2,1005.93,40.735,30.453472,-84.31871,105.78,NaN,,0,82.99355,,18-Sep,40805,2018-04-26 01:06:36:139,,,
5.7542,-1.6403,9.4483,5.9837,2.4516,7.377,-2.0606,3.7114,-0.4509,-0.9342,-4.0039,2.1266,10.564,-31.39,-29.84,-19.43,128.59,-21.45,-22.09,2,1005.94,33.075,30.453472,-84.31871,105.78,NaN,,0,82.99355,,0 / 18,40905,2018-04-26 01:06:36:239,,,
10.5984,-3.2126,9.4843,7.8798,-2.2351,5.3991,-2.9249,0.8415,-1.9534,-3.3277,-1.5416,2.2558,10.564,-43.49,-13.65,-11.45,127.24,0.42,-50.58,2,1005.94,33.075,30.453472,-84.31871,105.78,NaN,,0,82.99355,,0 / 18,41005,2018-04-26 01:06:36:339,,,
9.216,-2.831,7.2773,7.9564,-4.08,4.0355,-2.8129,-2.4674,-2.9124,-2.8419,-1.3461,2.1838,10.564,-46.15,-0.57,-4.55,139.16,24.58,-63.11,2,1005.94,33.075,30.453472,-84.31871,105.78,NaN,,0,82.99355,,0 / 18,41107,2018-04-26 01:06:36:441,,,
11.9711,-2.2832,5.5189,7.414,-6.3591,0.9115,-5.1524,-2.8102,-3.2704,-1.778,-2.1911,1.4976,10.564,-45.46,8.16,5.37,155.05,40.41,-82.99,2,1005.94,49.056,30.453472,-84.31871,105.78,NaN,,0,82.99355,,0 / 18,41205,2018-04-26 01:06:36:539,,,
12.007,-4.7838,3.2292,7.3726,-6.4714,-0.0351,-2.5598,1.962,-1.7053,-0.0981,-0.6787,-0.0869,10.564,-44.78,10,9.97,153.05,41.89,-88.23,2,1005.95,49.056,30.453472,-84.31871,105.78,NaN,,0,82.99355,,0 / 18,41305,2018-04-26 01:06:36:639,,,
10.3429,-7.819,2.2792,7.4718,-6.3432,-0.4146,1.0034,2.9084,0.6147,0.2071,-0.6374,-0.3468,10.564,-43.99,9.1,13.28,154.4,40.29,-93.18,2,1005.95,49.056,30.453472,-84.31871,105.78,NaN,,0,82.99355,,0 / 18,41404,2018-04-26 01:06:36:738,,,
8.2419,-8.1874,-0.3727,7.2355,-6.4654,-1.4429,1.7032,1.4278,-0.9976,0.9631,-1.8029,-0.21,43.314,-39.22,10.78,22.49,144.8,41.23,-101.28,2,1005.96,49.661,30.453472,-84.31871,105.78,NaN,,0,82.99355,,0 / 18,41505,2018-04-26 01:06:36:839,,,
5.235,-6.8775,-0.1544,7.1156,-6.7044,-0.8101,0.9779,0.0727,1.7133,0.9614,1.9263,0.5815,43.314,-38.57,13.71,23.08,139.76,41.23,-101.28,2,1005.96,49.661,30.453472,-84.31871,105.78,NaN,,0,82.99355,,0 / 18,41604,2018-04-26 01:06:36:938,,,
7.805,-7.8624,-0.242,6.3348,-7.4893,0.1277,-3.5134,-0.5514,-1.6563,-0.7577,0.9413,1.1878,43.314,-39.53,17.47,17.44,132.77,46.28,-88.34,2,1005.97,49.661,30.453472,-84.31871,105.78,NaN,,0,82.99355,,0 / 18,41704,2018-04-26 01:06:37:038,,,
10.0874,-6.3273,4.0772,6.2696,-7.5098,0.7286,-1.3673,-2.0522,-1.2287,0.8327,0.1683,-0.0205,43.314,-40.3,18.7,12.04,136.01,49.95,-83.37,0,1005.97,54.531,30.453472,-84.31871,105.78,NaN,,0,82.99355,,0 / 18,41804,2018-04-26 01:06:37:138,,,
7.9089,-7.518,-3.2778,5.8731,-7.8438,-0.4653,-1.9537,0.7268,0.1065,-0.7659,-2.7802,0.8438,43.314,-36.39,21.17,19.21,137.03,53.09,-94.53,0,1005.98,54.531,30.453472,-84.31871,105.78,NaN,,0,82.99355,,0 / 18,41904,2018-04-26 01:06:37:238,,,
7.0219,-10.0536,-1.012,5.6328,-8.0317,-0.0157,1.3511,0.6119,-1.3981,1.8805,-2.057,0.0035,43.314,-34.48,24.8,19.79,125.33,55.3,-90.65,0,1005.98,54.531,30.453472,-84.31871,105.78,NaN,,0,82.99355,,0 / 18,42004,2018-04-26 01:06:37:338,,,
3.3381,-7.3242,-0.2852,5.7599,-7.9407,-0.0728,0.0974,-0.9168,-0.9971,0.2236,-0.3923,-0.453,43.314,-31.7,26.27,22.02,116.69,54.04,-90.72,0,1005.98,54.531,30.453472,-84.31871,105.78,NaN,,0,82.99355,,0 / 18,42105,2018-04-26 01:06:37:439,,,
6.3726,-6.4019,0.9047,6.1907,-7.6042,-0.2953,0.3824,-1.3711,1.0121,0.0128,-0.2052,-0.4178,8.452,-32.33,24.11,21.04,118.11,50.82,-92.73,0,1005.98,52.804,30.453472,-84.31871,105.78,NaN,,0,82.99355,,0 / 18,42205,2018-04-26 01:06:37:539,,,
4.798,-6.2045,-1.595,6.2603,-7.5167,-0.7384,0.7502,-0.6408,0.9058,-0.8125,0.0485,-0.3617,8.452,-32.03,23.54,24.81,114.2,50.82,-92.73,0,1005.99,52.804,30.453472,-84.31871,105.78,NaN,,0,82.99355,,0 / 18,42304,2018-04-26 01:06:37:638,,,
5.3913,-6.8029,-1.4114,6.55,-7.221,-1.091,0.1224,-0.9065,0.7779,-0.285,0.0984,-0.2822,8.452,-34.18,20.35,26.38,126.14,48.07,-99.3,0,1005.99,52.804,30.453472,-84.31871,105.78,NaN,,0,82.99355,,0 / 18,42404,2018-04-26 01:06:37:738,,,
6.3403,-6.6259,-2.3362,6.6499,-7.1063,-1.2314,-0.2406,0.0178,-0.0319,0.305,-0.5079,-0.2921,8.452,-32.74,20.49,25.75,123.15,46.89,-99.45,0,1006.01,42.619,30.453472,-84.31871,105.78,NaN,,0,82.99355,,0 / 18,42506,2018-04-26 01:06:37:840,,,
4.9616,-7.0292,-0.3403,6.372,-7.3058,-1.5031,1.6922,4.5682,2.3752,-0.5983,-0.3144,0.4481,8.452,-31.84,19.91,27.13,127.38,48.14,-103.27,0,1005.99,42.619,30.453472,-84.31871,105.78,NaN,,0,82.99355,,0 / 18,42606,2018-04-26 01:06:37:940,,,
3.8741,-12.2629,-3.6748,5.062,-8.2163,-1.762,0.7168,0.7285,-3.7536,-0.5464,0.6878,1.6922,8.452,-31.37,21.05,28.18,137.58,51.9,-109.67,0,1005.99,42.619,30.453472,-84.31871,105.78,NaN,,0,82.99355,,0 / 18,42705,2018-04-26 01:06:38:039,,,
5.0213,-10.8482,-1.4258,4.5343,-8.505,-1.8279,0.5203,2.6463,-1.6037,-0.45,1.2538,1.0143,8.452,-30.76,23.66,25.76,149.66,60.11,-111.96,0,1005.98,54.084,30.453472,-84.31871,105.78,NaN,,0,82.99355,,0 / 18,42805,2018-04-26 01:06:38:139,,,
3.96,-10.5954,0.7248,4.4288,-8.5797,-1.735,-2.7066,1.6127,-0.8731,-0.4988,1.4067,0.1112,0.946,-33.37,24.92,22.06,158.79,61,-111.39,0,1005.99,54.084,30.453472,-84.31871,105.78,NaN,,0,82.99355,,0 / 18,42905,2018-04-26 01:06:38:239,,,
4.5318,-7.6143,-1.0756,3.9924,-8.756,-1.905,0.1448,-0.1541,-1.0476,-0.9166,1.4973,0.694,0.946,-33.89,24.42,19.59,167.13,62.48,-112.62,0,1005.99,54.084,30.453472,-84.31871,105.78,NaN,,0,82.99355,,0 / 18,43005,2018-04-26 01:06:38:339,,,
3.5518,-8.7605,-1.1464,3.967,-8.7134,-2.139,-1.8415,0.0425,-1.4083,-1.3295,1.8595,0.6143,0.946,-36.06,24.19,18.22,178.31,63.2,-115.51,0,1005.97,53.227,30.453472,-84.31871,105.78,NaN,,0,82.99355,,0 / 18,43105,2018-04-26 01:06:38:439,,,
3.4861,-8.6967,-1.4906,3.9332,-8.7054,-2.2321,1.1529,0.7349,-0.0149,-0.669,1.3477,0.3872,0.946,-37.42,24.01,13.95,193.25,62.1,-118.73,0,1005.95,53.227,30.453472,-84.31871,105.78,NaN,,0,82.99355,,0 / 18,43205,2018-04-26 01:06:38:539,,,
2.8582,-10.1367,-1.5614,3.7599,-8.7601,-2.3153,1.3526,1.0897,-0.5374,-1.0534,1.9787,0.6592,0.946,-37.33,25.69,10.17,207.27,63.25,-121.62,0,1005.95,53.227,30.453472,-84.31871,105.78,NaN,,0,82.99355,,0 / 18,43305,2018-04-26 01:06:38:639,,,
2.6064,-9.3589,-2.7116,3.5319,-8.8022,-2.5067,-0.5122,-0.4387,-0.2281,-1.0939,2.1953,0.7888,0.946,-37.77,25.9,7.76,214.35,63.21,-123.13,0,1005.94,53.227,30.453472,-84.31871,105.78,NaN,,0,82.99355,,0 / 18,43405,2018-04-26 01:06:38:739,,,
3.9063,-8.2235,-2.1095,3.1501,-8.948,-2.4994,-0.6176,-1.0746,-0.0487,-0.443,1.8735,1.1484,0.946,-35.49,31.56,0.8,239.29,65.8,-128.43,0,1005.94,43.68,30.453472,-84.31871,105.78,NaN,,0,82.99355,,0 / 18,43505,2018-04-26 01:06:38:839,,,
3.2975,-8.5883,-2.9131,2.7627,-9.1334,-2.277,-0.5754,-0.6663,0.6239,-0.4378,2.0262,0.7903,0.946,-31.88,34.06,-4.03,250.69,68.6,-129.5,0,1005.94,43.68,30.453472,-84.31871,105.78,NaN,,0,82.99355,,0 / 18,43604,2018-04-26 01:06:38:938,,,
3.1805,-8.5679,-3.225,2.685,-9.198,-2.1034,-0.1186,-1.218,1.4055,-0.3175,1.5914,0.4812,0.946,-27.74,36.27,-8.7,263.1,69.65,-128.07,0,1005.94,43.68,30.453472,-84.31871,105.78,NaN,,0,82.99355,,0 / 18,43705,2018-04-26 01:06:39:039,,,
2.0728,-7.8202,-3.4757,2.6996,-9.2379,-1.9,0.633,-1.3777,1.6266,-0.1001,1.3655,0.3206,0.946,-26.7,37,-9.54,267.01,69.65,-128.07,0,1005.94,38.764,30.453472,-84.31871,105.78,NaN,,0,82.99355,,0 / 18,43805,2018-04-26 01:06:39:139,,,
2.5395,-9.1723,-3.8175,3.0059,-9.1481,-1.8743,-0.8922,2.7493,1.1254,-0.4388,1.0488,-0.1233,0.946,-24.77,37.93,-13.36,268.73,70.12,-121.99,0,1005.95,38.764,30.453472,-84.31871,105.78,NaN,,0,82.99355,,0 / 18,43905,2018-04-26 01:06:39:239,,,
2.142,-8.3223,-2.2762,3.0806,-9.1178,-1.9002,0.9255,-1.5119,-0.6199,-0.369,1.2247,0.2004,0.946,-22.93,38.61,-13.51,277.19,68.35,-121.67,0,1005.96,38.764,30.453472,-84.31871,105.78,NaN,,0,82.99355,,0 / 18,44005,2018-04-26 01:06:39:339,,,
3.1256,-8.492,0.0759,3.2524,-9.0977,-1.6998,-1.8074,0.4526,-1.3226,-0.2715,1.3983,0.117,0.946,-21.66,38.15,-14.62,277.92,68.43,-120.31,0,1005.97,36.825,30.453472,-84.31871,105.78,NaN,,0,82.99355,,0 / 18,44104,2018-04-26 01:06:39:438,,,
4.5545,-8.6943,-0.8225,3.6692,-8.9684,-1.5302,-1.1435,-0.2382,-0.63,-0.396,1.4115,-0.1038,0.946,-18.56,39.11,-16.84,284.95,66.82,-115.4,0,1005.97,36.825,30.453472,-84.31871,105.78,NaN,,0,82.99355,,0 / 18,44204,2018-04-26 01:06:39:538,,,
4.4566,-9.1879,-1.0192,3.6887,-8.9795,-1.4138,-0.1333,0.0288,-0.4683,-0.2825,1.2214,0.073,0.946,-16.25,39.91,-16.99,290.33,66.25,-110.97,0,1006.01,36.825,30.453472,-84.31871,105.78,NaN,,0,82.99355,,0 / 18,44304,2018-04-26 01:06:39:638,,,
3.8287,-8.9471,-0.8717,3.5998,-9.0619,-1.0771,-1.7395,-0.9131,0.6993,-0.0087,0.7802,0.1691,0.946,-13.35,40.55,-18.19,293.15,67.48,-106.66,0,1006.01,39.792,30.453472,-84.31871,105.78,NaN,,0,82.99355,,0 / 18,44405,2018-04-26 01:06:39:739,,,Out
4.9711,-8.0141,-1.5782,3.4394,-9.1456,-0.8741,-1.4176,-0.8321,1.6252,0.1889,0.254,0.4758,0.946,-12.27,40.26,-19.41,290.5,68.79,-104.26,0,1006.09,39.792,30.453472,-84.31871,105.78,NaN,,0,82.99355,,0 / 18,44504,2018-04-26 01:06:39:838,,,Out
4.6608,-8.4427,-2.1263,2.9202,-9.3317,-0.7918,-2.555,-1.2218,0.9741,-0.0988,0.3371,0.534,0.946,-9.47,41.11,-20.1,294.46,70.66,-103.73,0,1006.09,39.792,30.453472,-84.31871,105.78,NaN,,0,82.99355,,0 / 18,44604,2018-04-26 01:06:39:938,,,Out
4.8601,-10.0981,-1.2615,3.1233,-9.2702,-0.7374,-1.0522,1.2641,-1.4563,0.0995,-0.1486,-0.2508,0.946,-7.76,41.06,-19.31,295.09,72.73,-105.24,0,1006.07,39.792,30.453472,-84.31871,105.78,NaN,,0,82.99355,,0 / 18,44704,2018-04-26 01:06:40:038,,,Out
3.3202,-10.5388,1.4168,3.1233,-9.2702,-0.7374,2.21,1.8729,-1.3741,-0.1488,-0.4395,-1.0787,0.946,-9.95,40.81,-19.4,291.86,70.91,-103.28,0,1006.07,46.156,30.453472,-84.31871,105.78,NaN,,0,82.99355,,0 / 18,44805,2018-04-26 01:06:40:139,,,Out
3.7117,-9.4636,-1.8792,4.5304,-8.4066,-2.2453,-0.6754,-0.6614,0.1118,-1.0646,-0.0068,-0.7787,0.946,-14.66,41.29,-15.14,289.87,66.76,-105.9,0,1006.01,46.156,30.453472,-84.31871,105.78,NaN,,0,82.99355,,0 / 18,44905,2018-04-26 01:06:40:239,,,Out
4.3217,-6.9245,-1.4462,4.4846,-8.2979,-2.6963,0.4369,-0.5151,0.0771,-0.2685,-0.7831,-0.29,0.946,-18.25,41.57,-11.47,307.11,57.76,-121.02,0,1006.01,46.156,30.453472,-84.31871,105.78,NaN,,0,82.99355,,0 / 18,45004,2018-04-26 01:06:40:338,,,Out
3.3321,-5.1486,-3.0523,4.5786,-8.1702,-2.9189,0.3051,-2.3149,0.2358,0.1343,-0.3435,-0.2069,0.946,-19.84,40.36,-10.76,303.03,56.39,-122.52,0,1005.96,49.646,30.453472,-84.31871,105.78,NaN,,0,82.99355,,0 / 18,45104,2018-04-26 01:06:40:438,,,Out
4.2943,-5.9565,-3.1434,4.6338,-8.2287,-2.6556,-0.6184,2.3434,1.1763,0.396,-0.2027,-0.1104,0.946,-19.05,39.77,-11.22,303.43,57.01,-119.82,0,1005.98,49.646,30.453472,-84.31871,105.78,NaN,,0,82.99355,,0 / 18,45205,2018-04-26 01:06:40:539,,,Out
5.2922,-9.2553,-4.9702,4.6239,-8.172,-2.8415,-0.6742,-1.0991,4.2295,-0.0764,-0.1991,-0.0338,0.946,-20.4,39.23,-12.07,301.37,56.41,-121.57,0,1005.98,49.646,30.453472,-84.31871,105.78,NaN,,0,82.99355,,0 / 18,45304,2018-04-26 01:06:40:638,,,Out
6.9551,-17.2521,1.3905,4.4363,-8.1583,-3.162,2.9988,-1.9168,-1.1041,-0.2591,0.8,0.4942,0.946,-20.28,40.33,-10.11,304.59,55.77,-124.09,0,1006.04,50.864,30.453472,-84.31871,105.78,NaN,,0,82.99355,,0 / 18,45404,2018-04-26 01:06:40:738,,,Out
6.7701,-11.5285,0.0711,4.2712,-8.3666,-2.8272,2.0533,0.5559,-1.0395,0.5829,0.5009,0.243,0.946,-19.12,40.33,-11.21,302.55,58.52,-123.5,0,1006.1,50.864,30.453472,-84.31871,105.78,NaN,,0,82.99355,,0 / 18,45505,2018-04-26 01:06:40:839,,,Out
1.9116,-9.5985,-1.9512,4.6049,-8.465,-1.8369,0.7475,0.3389,-1.5318,0.4462,0.7967,-0.286,0.946,-17.84,40.09,-13.18,301.75,59.41,-120.03,0,1006.1,50.864,30.453472,-84.31871,105.78,NaN,,0,82.99355,,0 / 18,45605,2018-04-26 01:06:40:939,,,Out
5.7721,-15.835,-1.8924,4.5159,-8.6438,-1.0623,-2.3495,-0.0823,1.9219,1.8395,-0.3057,0.397,0.946,-16.27,38.82,-19.26,291.11,61.78,-103.24,0,1005.99,53.502,30.453472,-84.31871,105.78,NaN,,0,82.99355,,0 / 18,45706,2018-04-26 01:06:41:040,,,Out
6.3988,-9.4528,-1.505,3.7887,-8.6322,2.7142,-6.6282,1.481,3.4633,3.6375,1.1363,0.8091,0.946,-11.99,29.64,-32.11,240.58,61.63,-54.38,0,1005.9,53.502,30.453472,-84.31871,105.78,NaN,,0,82.99355,,0 / 18,45804,2018-04-26 01:06:41:138,,,Out
17.1352,-2.5781,-2.3374,6.9595,-6.1344,3.1892,-8.6273,-0.52,-5.2027,-1.6262,0.8833,-4.3583,0.946,-13.61,24.5,-36.19,244.47,51.61,-53.92,0,1005.9,53.502,30.453472,-84.31871,105.78,NaN,,0,82.99355,,0 / 18,45905,2018-04-26 01:06:41:239,,,Out
14.8779,-5.7711,9.3847,8.2337,-2.4942,4.7139,-6.8831,1.055,-2.307,-1.6085,3.2222,-6.9764,0.946,-19.5,18.56,-36.64,292.76,14.73,-60.21,2,1005.9,53.502,30.453472,-84.31871,105.78,NaN,,0,82.99355,,0 / 18,46005,2018-04-26 01:06:41:339,,,Out
12.648,-10.528,6.2578,3.4059,4.5335,8.0052,1.4718,12.3274,-0.0301,0.2975,3.6449,-7.8035,0.946,-8.56,0.18,-45,291.6,-15.31,-45,2,1005.94,53.233,30.453472,-84.31871,105.78,NaN,,0,82.99355,,0 / 18,46105,2018-04-26 01:06:41:439,,,Out
4.3193,-1.7835,7.053,0.5948,5.6012,8.0318,1.5274,6.7192,2.6012,1.803,1.9826,-1.9415,0.946,10.13,-5.3,-44.49,327.21,-34.82,-4.24,2,1005.94,53.233,30.453472,-84.31871,105.78,NaN,,0,82.99355,,0 / 18,46205,2018-04-26 01:06:41:539,,,Out
-1.9823,-1.4187,5.7036,-0.4386,6.8131,7.0446,-2.4173,1.8801,4.3179,1.0262,0.9106,0.5536,0.946,13.25,-8.9,-42.99,336.03,-40.46,4.46,2,1005.94,53.233,30.453472,-84.31871,105.78,NaN,,0,82.99355,,0 / 18,46305,2018-04-26 01:06:41:639,,,Out
2.142,5.4006,2.5167,0.1804,7.1232,6.7427,-1.8852,0.7562,4.3275,-0.3454,-0.3412,0.5855,0.946,11.45,-13.74,-42.06,329.59,-46.56,-1.53,2,1005.94,45.168,30.453472,-84.31871,105.78,NaN,,0,82.99355,,0 / 18,46406,2018-04-26 01:06:41:740,,,Out
2.3246,6.424,2.6547,1.137,5.7096,7.8958,0.8153,3.7837,6.7564,-1.8426,-0.4477,0.3247,17.959,7.31,-5.17,-44.13,327.48,-35.59,-8.19,2,1005.94,45.168,30.453472,-84.31871,105.78,NaN,,0,82.99355,,0 / 18,46507,2018-04-26 01:06:41:841,,,Out
2.9872,-2.4312,0.7272,8.9511,0.4662,3.9871,-7.2614,9.6912,-3.7746,-2.9595,-9.2545,3.9564,17.959,-6.86,3.32,-44.79,319.97,-23.21,-29.92,2,1005.95,45.168,30.453472,-84.31871,105.78,NaN,,0,82.99355,,0 / 18,46604,2018-04-26 01:06:41:938,,,Out
16.8989,-8.5306,8.1949,9.3317,-2.9933,0.4427,-7.5115,6.6185,-10.3148,0.3414,-0.4569,5.0288,17.959,-32.55,25.08,-21.15,304.71,17.77,-87.28,2,1005.94,43.238,30.453472,-84.31871,105.78,NaN,,0,82.99355,,0 / 18,46705,2018-04-26 01:06:42:039,,,Out
13.1064,-7.2375,-1.0564,6.9639,-6.8372,-0.9965,-6.0035,-0.3836,-1.2247,1.1567,-3.4333,3.2563,17.959,-20.13,38.02,-18.12,306.4,44.18,-98.14,2,1005.94,43.238,30.453472,-84.31871,105.78,NaN,,0,82.99355,,0 / 18,46805,2018-04-26 01:06:42:139,,,Out
16.6016,-3.6449,4.6925,6.8158,-7.0337,0.5551,-17.039,-4.4841,2.3708,0.6181,8.1786,-1.7573,17.959,-11.25,37.56,-23.79,306.81,45.81,-85.34,2,1005.95,43.238,30.453472,-84.31871,105.78,NaN,,0,82.99355,,0 / 18,46905,2018-04-26 01:06:42:239,,,Out
18.5629,-2.8454,6.7867,5.6749,-3.1352,7.3622,-2.4216,6.0749,-2.4261,0.9104,7.166,-4.6909,17.959,-6.96,35.78,-28.71,308.8,36.06,-55.62,2,1005.95,46.619,30.453472,-84.31871,105.78,NaN,,0,82.99355,,0 / 18,47005,2018-04-26 01:06:42:339,,,Out
5.7542,-7.9503,10.1212,2.6867,2.5839,9.0742,1.0674,7.8548,-1.0016,3.8313,1.9349,-3.137,17.959,-1.04,20.16,-40.46,324.7,0.94,-21.48,2,1005.99,46.619,30.453472,-84.31871,105.78,NaN,,0,82.99355,,0 / 18,47106,2018-04-26 01:06:42:440,,,Out
2.5013,-6.1407,9.8189,1.3374,3.97,8.8705,0.5785,6.1239,1.9223,2.8958,1.8422,-1.7395,32.75,3.77,5.16,-45.83,334.57,-23.87,-8.57,2,1005.99,46.619,30.453472,-84.31871,105.78,NaN,,0,82.99355,,0 / 18,47205,2018-04-26 01:06:42:539,,,Out
1.3696,1.1494,5.1591,2.4731,6.0236,7.3373,-0.6367,2.3758,3.4118,2.1363,-1.3833,0.2764,32.75,2.85,-2.89,-44.56,329.41,-32.23,-11.87,2,1005.98,46.619,30.453472,-84.31871,105.78,NaN,,0,82.99355,,0 / 18,47305,2018-04-26 01:06:42:639,,,Out
3.5792,3.8655,4.5066,2.9166,6.3417,6.8929,-0.3416,2.291,1.5305,0.5787,-0.6961,-0.3423,32.75,-3.42,-8.87,-45.12,324.46,-40.28,-22.93,2,1005.98,34.694,30.453472,-84.31871,105.78,NaN,,0,82.99355,,0 / 18,47405,2018-04-26 01:06:42:739,,,Out
2.4726,5.6811,3.8661,3.3274,6.7828,6.2577,0.2191,0.568,1.9424,0.3191,-0.8884,-0.2926,32.75,-8.11,-12.95,-44.08,325.88,-43.74,-28,2,1005.97,34.694,30.453472,-84.31871,105.78,NaN,,0,82.99355,,0 / 18,47505,2018-04-26 01:06:42:839,,,
2.937,6.2048,4.7873,3.6382,6.9603,5.8783,-0.5668,-0.9755,1.3917,0.1313,-0.7302,-0.1913,32.75,-11.38,-12.75,-42.7,329.68,-44.51,-30.16,2,1005.97,34.694,30.453472,-84.31871,105.78,NaN,,0,82.99355,,0 / 18,47604,2018-04-26 01:06:42:938,,,
3.7595,8.0746,5.2958,3.5522,6.9646,5.9256,0.4904,-1.726,0.5994,-0.241,-0.3776,-0.4364,32.75,-11.96,-12.68,-42.35,330.06,-45.19,-31.75,2,1005.96,47.176,30.453472,-84.31871,105.78,NaN,,0,82.99355,,0 / 18,47704,2018-04-26 01:06:43:038,,,
2.9489,8.5839,5.9243,3.2698,6.2686,6.8007,0.7533,1.14,-5.136,-1.5485,-0.1515,-0.4463,32.75,-11.99,-8.99,-42.72,337.01,-43.02,-28.29,2,1005.97,47.176,30.453472,-84.31871,105.78,NaN,,0,82.99355,,0 / 18,47805,2018-04-26 01:06:43:139,,,
1.9641,5.7148,8.0414,3.4795,6.2387,6.7237,1.0996,0.6105,-1.4032,-0.1788,-0.0153,0.4754,12.677,-12.52,-7.47,-43,340.09,-39.49,-27.36,2,1005.97,47.176,30.453472,-84.31871,105.78,NaN,,0,82.99355,,0 / 18,47904,2018-04-26 01:06:43:238,,,
2.1683,5.1116,8.0258,3.7745,5.724,7.016,0.3475,0.1863,0.5052,-0.2183,0.5847,0.8927,12.677,-11.66,-5.77,-43.66,337.43,-37.64,-27.09,2,1005.97,56.457,30.453472,-84.31871,105.78,NaN,,0,82.99355,,0 / 18,48005,2018-04-26 01:06:43:339,,,
3.1352,5.3633,6.4845,4.2124,5.611,6.8563,0.3799,0.0375,0.3973,0.1484,-0.071,0.7026,12.677,-12.89,-5,-43.16,331.14,-34.89,-31.57,2,1005.96,56.457,30.453472,-84.31871,105.78,NaN,,0,82.99355,,0 / 18,48107,2018-04-26 01:06:43:441,,,
4.9222,5.2272,7.2485,4.5034,5.5312,6.7351,-0.883,0.1943,-0.3277,0.0941,-0.085,0.2478,12.677,-13.23,-4.67,-43.21,326.92,-34.32,-33.77,2,1005.96,56.457,30.453472,-84.31871,105.78,NaN,,0,82.99355,,0 / 18,48205,2018-04-26 01:06:43:539,,,
5.2505,5.4848,6.6836,4.375,5.6771,6.6982,-1.5219,-0.6662,0.5073,-0.0896,-0.2923,-0.4378,12.677,-14.05,-5.17,-41.35,332.11,-35.36,-33.15,2,1005.96,58.544,30.453472,-84.31871,105.78,NaN,,0,82.99355,,0 / 18,48305,2018-04-26 01:06:43:639,,,
6.4537,4.8853,8.713,4.2388,5.2093,7.1507,-0.765,3.7864,0.4731,-0.6114,-0.2148,-0.0848,12.677,-14.39,-4.46,-43.17,331.81,-35.36,-33.15,2,1005.97,58.544,30.453472,-84.31871,105.78,NaN,,0,82.99355,,0 / 18,48404,2018-04-26 01:06:43:738,,,
5.0977,1.4708,7.9874,5.8143,4.4759,6.5113,-0.8133,5.0078,3.7462,-0.1866,-1.8374,0.78,12.677,-18.33,-0.78,-40.4,342.8,-30.72,-32.87,2,1005.97,58.544,30.453472,-84.31871,105.78,NaN,,0,82.99355,,0 / 18,48504,2018-04-26 01:06:43:838,,,
9.6541,3.3466,9.4459,5.7721,3.7948,6.9655,-3.576,-1.3583,-1.997,-2.1433,2.611,-1.9727,12.677,-21.17,5.98,-38.4,339.87,-22.76,-39.65,2,1005.97,58.544,30.453472,-84.31871,105.78,NaN,,0,82.99355,,0 / 18,48605,2018-04-26 01:06:43:939,,,
6.0455,5.4295,8.6507,2.3704,3.7255,8.76,1.9865,-0.5606,-0.9,-1.1513,2.0454,-3.0879,11.621,-13.55,6.69,-42.43,6.24,-22.32,-15.14,2,1005.98,62.556,30.453472,-84.31871,105.78,NaN,,0,82.99355,,0 / 18,48704,2018-04-26 01:06:44:038,,,
0.3299,3.585,10.6214,2.2991,4.5603,8.3758,0.7666,0.6975,-0.6098,0.7555,-0.4258,-0.6905,11.621,-15.47,5.13,-41.53,10.1,-24.39,-14.41,2,1005.98,62.556,30.453472,-84.31871,105.78,NaN,,0,82.99355,,0 / 18,48805,2018-04-26 01:06:44:139,,,
2.0358,4.3327,8.8402,2.882,5.1228,7.8541,-0.9746,-0.2342,0.4821,0.4297,-1.5264,-0.3604,11.621,-17.34,0,-41.13,4.53,-31.48,-20.15,2,1005.97,62.556,30.453472,-84.31871,105.78,NaN,,0,82.99355,,0 / 18,48905,2018-04-26 01:06:44:239,,,
2.5479,3.4405,9.9977,3.0586,5.196,7.7384,1.4678,1.8919,-0.4651,-0.07,0.236,-0.3221,11.621,-20.94,-1.69,-38.99,13.52,-31.98,-21.57,2,1005.97,65.135,30.453472,-84.31871,105.78,NaN,,0,82.99355,,0 / 18,49005,2018-04-26 01:06:44:339,,,
1.9402,3.1756,8.6387,3.4841,4.8925,7.7563,-0.1101,0.744,1.8897,-0.6987,0.0275,1.1302,11.621,-21.75,-0.58,-38.51,10.83,-29.92,-24.19,2,1005.98,65.135,30.453472,-84.31871,105.78,NaN,,0,82.99355,,0 / 18,49105,2018-04-26 01:06:44:439,,,
3.4217,3.3406,6.4137,4.2761,3.5247,8.0949,-0.6816,-0.1814,0.0962,-1.026,-0.5314,0.8522,11.621,-22.71,6.47,-38.62,9.72,-25,-25.21,2,1005.98,65.135,30.453472,-84.31871,105.78,NaN,,0,82.99355,,0 / 18,49205,2018-04-26 01:06:44:539,,,
4.3015,3.2322,9.2336,4.4602,3.2992,8.0906,-0.1549,-0.2859,0.4858,-0.2436,-0.3734,-0.4935,11.621,-23.66,9.57,-36.93,8.77,-19.53,-28.13,2,1005.97,63.542,30.453472,-84.31871,105.78,NaN,,0,82.99355,,0 / 18,49304,2018-04-26 01:06:44:638,,,
4.4996,3.4176,7.8866,4.423,3.3162,8.1041,0.5199,1.2447,-0.2225,-0.6067,-0.3782,-1.075,6.339,-27.66,8.62,-35.39,18.46,-19.76,-28.62,2,1005.97,63.542,30.453472,-84.31871,105.78,NaN,,0,82.99355,,0 / 18,49405,2018-04-26 01:06:44:739,,,
4.1009,2.4978,8.1169,4.5356,3.1709,8.1,0.4882,2.373,1.4611,-0.8016,-0.618,-1.191,6.339,-29.15,7.18,-33.62,23.27,-19.66,-28.63,2,1005.97,63.542,30.453472,-84.31871,105.78,NaN,,0,82.99355,,0 / 18,49504,2018-04-26 01:06:44:838,,,
3.9923,1.0422,6.9738,4.7345,2.7894,8.1265,1.1223,3.0138,1.2027,-1.9713,-0.5363,-1.3023,6.339,-33.04,7.9,-30.96,32.83,-16.52,-30.23,2,1005.97,57.22,30.453472,-84.31871,105.78,NaN,,0,82.99355,,0 / 18,49605,2018-04-26 01:06:44:939,,,
5.118,2.0018,10.0492,4.5262,1.3273,8.6016,-1.2678,-0.3887,-3.5473,-2.333,-0.029,-1.542,6.339,-34.65,9.06,-27.85,51.09,-7.78,-27.75,2,1005.98,57.22,30.453472,-84.31871,105.78,NaN,,0,82.99355,,0 / 18,49704,2018-04-26 01:06:45:038,,,
5.5871,1.3685,12.6592,4.3302,1.2346,8.7156,0.4607,0.1529,-0.4445,-0.4176,0.2678,-1.615,6.339,-35.5,8.27,-26.66,56.2,-7.23,-26.42,2,1005.97,57.22,30.453472,-84.31871,105.78,NaN,,0,82.99355,,0 / 18,49804,2018-04-26 01:06:45:138,,,
3.4455,1.4913,8.6938,4.3359,1.6625,8.6413,0.4189,-0.2834,0.4011,-0.1057,-0.4256,-1.029,6.339,-36.97,2.88,-27.27,67.72,-8.62,-25.25,2,1005.97,57.22,30.453472,-84.31871,105.78,NaN,,0,82.99355,,0 / 18,49905,2018-04-26 01:06:45:239,,,
4.1451,1.5202,7.9106,4.6326,1.8177,8.4541,0.4762,0.8823,1.4506,-0.2318,-0.4052,-0.7038,6.339,-38.42,-0.21,-24.77,71.51,-10.65,-27.73,2,1005.97,59.891,30.453472,-84.31871,105.78,NaN,,0,82.99355,,0 / 18,50005,2018-04-26 01:06:45:339,,,
4.3862,-0.3062,6.2542,4.9773,1.569,8.3067,1.6657,4.3956,4.2344,-0.5761,-0.5104,-0.4745,6.339,-40.66,-0.61,-21.3,77.81,-9.2,-30.93,2,1005.97,59.891,30.453472,-84.31871,105.78,NaN,,0,82.99355,,0 / 18,50105,2018-04-26 01:06:45:439,,,
0.5508,-4.9174,1.1002,7.9902,-1.1474,5.5746,5.2557,7.4694,-2.9388,-1.5289,-4.2108,1.5344,6.339,-43.74,0.38,-15.15,79.17,-6.78,-39.52,2,1005.97,59.891,30.453472,-84.31871,105.78,NaN,,0,82.99355,,0 / 18,50205,2018-04-26 01:06:45:539,,,
14.5317,-4.7573,13.0826,7.4434,-4.9474,4.0442,-9.2588,-1.0737,-10.0219,-1.1387,-1.1062,5.2785,6.339,-38.89,24.87,4.71,76.54,30.29,-61.48,2,1005.97,57.33,30.453472,-84.31871,105.78,NaN,,0,82.99355,,0 / 18,50305,2018-04-26 01:06:45:639,,,
18.391,-2.2675,10.078,5.3249,-7.5633,3.2676,-7.0401,1.0393,8.7362,0.6651,-1.0187,2.6394,6.339,-24.4,38.37,9.12,59.19,50.44,-58.46,0,1005.94,57.33,30.453472,-84.31871,105.78,NaN,,0,82.99355,,0 / 18,50406,2018-04-26 01:06:45:740,,,
11.5688,-10.4653,-7.2683,3.9857,-8.946,-0.5652,0.7357,0.08,-3.1174,-2.5262,-2.4835,1.4774,6.339,-20.72,38.35,15.16,79.34,60.4,-78.18,0,1005.94,57.33,30.453472,-84.31871,105.78,NaN,,0,82.99355,,0 / 18,50505,2018-04-26 01:06:45:839,,,
8.7564,-5.6218,-0.4867,3.6361,-9.0942,-0.5577,-2.3119,0.9689,0.547,-0.9803,1.1301,1.1149,6.339,-11.54,35.8,26.28,88.55,65.77,-98.07,0,1005.97,55.973,30.453472,-84.31871,105.78,NaN,,0,82.99355,,0 / 18,50605,2018-04-26 01:06:45:939,,,
2.3939,-9.3998,-0.8585,3.2235,-9.2649,-0.0874,-1.6738,-1.4832,0.9635,0.0381,0.9222,0.3152,6.339,-12.84,36.91,24.45,92.96,70.12,-94.01,0,1006.04,55.973,30.453472,-84.31871,105.78,NaN,,0,82.99355,,0 / 18,50705,2018-04-26 01:06:46:039,,,
3.6652,-8.3957,-0.5406,3.1803,-9.2801,0.0445,-1.2173,-1.7204,0.0535,-0.0132,0.7337,0.2104,2.113,-14.55,38.5,23.33,93.85,71.08,-89.2,0,1006.04,55.973,30.453472,-84.31871,105.78,NaN,,0,82.99355,,0 / 18,50805,2018-04-26 01:06:46:139,,,
5.0917,-8.3427,0.3553,3.0073,-9.3313,0.3443,-4.4292,1.6293,0.0269,0.1683,0.4227,0.1553,2.113,-14.9,37.49,23.3,93.01,71.9,-86.15,0,1006.09,54.512,30.453472,-84.31871,105.78,NaN,,0,82.99355,,0 / 18,50905,2018-04-26 01:06:46:239,,,
