ACCELEROMETER X (m/s²),ACCELEROMETER Y (m/s²),ACCELEROMETER Z (m/s²),GRAVITY X (m/s²),GRAVITY Y (m/s²),GRAVITY Z (m/s²),LINEAR ACCELERATION X (m/s²),LINEAR ACCELERATION Y (m/s²),LINEAR ACCELERATION Z (m/s²),GYROSCOPE X (rad/s),GYROSCOPE Y (rad/s),GYROSCOPE Z (rad/s),LIGHT (lux),MAGNETIC FIELD X (μT),MAGNETIC FIELD Y (μT),MAGNETIC FIELD Z (μT),ORIENTATION Z (azimuth °),ORIENTATION X (pitch °),ORIENTATION Y (roll °),PROXIMITY (i),ATMOSPHERIC PRESSURE (hPa),SOUND LEVEL (dB),LOCATION Latitude : ,LOCATION Longitude : ,LOCATION Altitude ( m),LOCATION Altitude-google ( m),LOCATION Altitude-atmospheric pressure ( m),LOCATION Speed ( Kmh),LOCATION Accuracy ( m),LOCATION ORIENTATION (°),Satellites in range,Time since start in ms ,YYYY-MO-DD HH-MI-SS_SSS,,,LABEL_DATA
-1.7352,6.666,7.1538,-2.155,6.6725,6.8608,0.2932,0.2345,-0.6988,-0.1383,0.0646,0.3347,11.621,6.36,-11.35,-43.33,18.78,-42.86,17.44,2,1006.08,34.983,30.453472,-84.318726,90.83,NaN,,0,48.412903,,17-Aug,5,2018-04-26 00:57:06:276,,,
-2.4204,6.365,7.6228,-2.0695,6.9765,6.5789,-0.8582,0.0069,0.5766,0.2092,0.7962,0.9529,10.564,8.31,-10.93,-43.7,13.92,-43.54,17.5,2,1006.09,34.983,30.453472,-84.318726,90.83,NaN,,0,48.412903,,17-Aug,104,2018-04-26 00:57:06:375,,,
-1.2673,6.938,6.1151,-1.9788,7.1473,6.4216,-0.4448,0.3593,0.4493,0.2515,0.3245,0.4794,10.564,9.08,-12.46,-43.26,9.75,-46.77,17.13,2,1006.09,34.983,30.453472,-84.318726,90.83,NaN,,0,48.412903,,17-Aug,205,2018-04-26 00:57:06:476,,,
-1.6982,7.2186,6.2962,-1.8728,7.1911,6.4045,0.1945,-0.2055,0.4715,-0.1059,-0.1031,-0.0537,10.564,9.86,-13.74,-41.79,5.66,-47.14,16.3,2,1006.09,34.983,30.453472,-84.318726,90.83,NaN,,0,48.412903,,17-Aug,304,2018-04-26 00:57:06:575,,,
-2.1375,7.3149,6.3214,-1.6748,7.3429,6.2859,0.7615,-1.0644,0.8655,-0.1199,-0.1738,-0.1727,10.564,8.93,-13.89,-42.58,8.53,-46.51,16.16,2,1006.1,24.516,30.453472,-84.318726,90.83,NaN,,0,48.412903,,17-Aug,404,2018-04-26 00:57:06:675,,,
-0.5236,9.4254,6.2578,-1.6292,7.2754,6.3758,-1.0131,-1.5039,-1.4443,-0.1432,-0.4252,-0.3407,10.564,8.93,-14.31,-42.03,5.3,-48.46,14.92,2,1006.09,24.516,30.453472,-84.318726,90.83,NaN,,0,48.412903,,17-Aug,505,2018-04-26 00:57:06:776,,,
-0.7397,8.6742,7.9982,-2.1873,7.1503,6.3502,0.196,0.4082,1.329,0.2553,-0.3334,-0.7678,10.564,8.83,-13.83,-42.89,9.72,-46.81,16.81,2,1006.09,24.516,30.453472,-84.318726,90.83,NaN,,0,48.412903,,17-Aug,604,2018-04-26 00:57:06:875,,,
-2.3226,7.4076,5.1039,-2.2185,7.0876,6.4094,0.3288,-0.498,1.4143,-0.0888,-0.4518,-0.4418,10.564,7.71,-13,-43.19,16.29,-46.26,19.09,2,1006.1,30.316,30.453472,-84.318726,90.83,NaN,,0,48.412903,,17-Aug,705,2018-04-26 00:57:06:976,,,
-2.3882,7.6664,5.5909,-2.3378,5.9744,7.4214,-0.0241,0.5809,0.8214,-1.0238,-0.3293,-0.7314,9.508,5.53,-10.59,-43.79,19.61,-42.1,17.55,2,1006.1,30.316,30.453472,-84.318726,90.83,NaN,,0,48.412903,,17-Aug,804,2018-04-26 00:57:07:075,,,
-3.2358,5.1249,6.6992,-2.5261,5.7015,7.5728,0.8406,0.1898,1.2874,-0.46,0.0719,-0.4245,9.508,6.26,-4.87,-45.32,21.37,-35.53,18.45,2,1006.09,30.316,30.453472,-84.318726,90.83,NaN,,0,48.412903,,17-Aug,905,2018-04-26 00:57:07:176,,,
-3.0591,4.7432,7.979,-2.5209,4.7028,8.2319,0.5866,0.6305,0.7633,-0.8785,-0.4614,-0.2889,9.508,5.74,-0.91,-45.34,19.86,-28.65,17.03,2,1006.08,24.478,30.453472,-84.318726,90.83,NaN,,0,48.412903,,17-Aug,1004,2018-04-26 00:57:07:275,,,
-3.5724,4.9334,7.1322,-1.7857,4.2511,8.6588,-0.2946,1.0014,0.288,-0.3267,-0.6681,0.9884,9.508,3.29,3.56,-45.02,21.72,-26.28,15.6,2,1006.07,24.478,30.453472,-84.318726,90.83,NaN,,0,48.412903,,17-Aug,1105,2018-04-26 00:57:07:376,,,
-2.9146,3.9703,8.3964,-1.0619,4.2604,8.7726,0.3213,0.0068,0.8845,-0.246,-0.7185,1.2183,9.508,1.8,3.68,-44.89,17.31,-25.68,11.65,2,1006.07,24.478,30.453472,-84.318726,90.83,NaN,,0,48.412903,,17-Aug,1204,2018-04-26 00:57:07:475,,,
-1.3879,5.0273,8.412,-0.191,3.5384,9.1476,1.0915,-0.8272,0.4871,-0.7816,-0.4189,0.6704,9.508,-0.21,6.76,-45.52,6.98,-23.85,3.81,2,1006.08,24.478,30.453472,-84.318726,90.83,NaN,,0,48.412903,,17-Aug,1304,2018-04-26 00:57:07:575,,,
0.3263,5.0875,10.2171,-0.142,3.3874,9.2055,0.1682,-2.5454,-0.4465,-0.249,0.1915,0.6496,9.508,-0.47,9.41,-43.73,1.64,-20.2,0.88,2,1006.08,27.106,30.453472,-84.318726,90.83,NaN,,0,48.412903,,17-Aug,1405,2018-04-26 00:57:07:676,,,
-0.6084,5.9797,9.5502,-0.2599,3.1939,9.2719,0.8077,0.5463,-0.6617,-0.1553,0.4201,0.9475,9.508,2.83,10.58,-44.15,355.92,-19,1.61,2,1006.1,27.106,30.453472,-84.318726,90.83,NaN,,0,48.412903,,17-Aug,1504,2018-04-26 00:57:07:775,,,
-1.6994,2.5315,10.89,0.1056,3.2204,9.2658,-0.0067,0.1308,-1.8691,-0.0923,0.5227,2.1137,16.903,4.1,10.11,-44.75,351.54,-19.29,0.49,2,1006.1,27.106,30.453472,-84.318726,90.83,NaN,,0,48.412903,,17-Aug,1605,2018-04-26 00:57:07:876,,,
0.6104,3.5344,12.0943,-0.1387,3.1811,9.2789,1.683,-0.7626,0.9429,-0.0078,1.0652,2.164,16.903,9.88,9.62,-44.3,338.55,-18.92,0.86,2,1006.1,35.465,30.453472,-84.318726,90.83,NaN,,0,48.412903,,17-Aug,1704,2018-04-26 00:57:07:975,,,
-0.7325,4.0786,8.773,0.9827,2.9998,9.2883,0.1824,-1.5289,1.6537,-0.4626,-1.4337,0.2987,16.903,9.99,9.15,-43.9,326.03,-17.81,-6.04,2,1006.1,35.465,30.453472,-84.318726,90.83,NaN,,0,48.412903,,17-Aug,1805,2018-04-26 00:57:08:076,,,
-2.7714,3.1407,9.2948,2.6223,3.0739,8.9393,-2.8268,0.8916,1.3681,0.2696,-2.4371,1.1559,16.903,4.85,7.93,-44.64,335.34,-17.81,-6.04,2,1006.09,35.465,30.453472,-84.318726,90.83,NaN,,0,48.412903,,17-Aug,1904,2018-04-26 00:57:08:175,,,
3.7046,1.2589,8.1997,3.5029,2.8928,8.6947,-0.1894,-0.1134,0.3858,-8.00E-04,0.1888,-0.308,16.903,-5.06,9.69,-44.01,330.27,-16.76,-22.84,2,1006.09,31.885,30.453472,-84.318726,90.83,NaN,,0,48.412903,,17-Aug,2005,2018-04-26 00:57:08:276,,,
4.2191,1.7393,9.5083,4.2649,3.0089,8.3062,-3.1026,1.0153,-1.0065,0.5994,-0.4035,0.352,16.903,-5.04,7.74,-43.8,328,-18.62,-23.79,2,1006.09,31.885,30.453472,-84.318726,90.83,NaN,,0,48.412903,,17-Aug,2104,2018-04-26 00:57:08:375,,,
5.4331,1.0627,8.2956,4.2006,2.8764,8.3855,-1.5563,1.956,-1.2506,0.1491,0.4232,0.6661,16.903,-4.88,7.53,-44.26,322.48,-17.05,-26.61,2,1006.03,31.885,30.453472,-84.318726,90.83,NaN,,0,48.412903,,17-Aug,2205,2018-04-26 00:57:08:476,,,
5.2624,0.2151,10.6873,3.6563,2.6073,8.7218,-0.2729,1.898,-0.2205,-0.3031,0.2848,-0.0464,17.959,-3.02,6.58,-45.01,320.27,-16.44,-23.97,2,1006.03,34.034,30.453472,-84.318726,90.83,NaN,,0,48.412903,,17-Aug,2305,2018-04-26 00:57:08:576,,,
3.3262,1.2035,9.1508,3.4865,2.5195,8.8166,0,0.9473,0.1921,-0.1961,0.218,-0.1964,17.959,-1.46,8.41,-45.61,319.64,-14.88,-21.58,2,1006.02,34.034,30.453472,-84.318726,90.83,NaN,,0,48.412903,,17-Aug,2405,2018-04-26 00:57:08:676,,,
2.7365,2.3208,6.7304,3.8339,1.2971,8.9361,-0.5417,3.0872,3.5219,-1.7853,-0.2549,-0.0711,17.959,-3.46,13.19,-44.46,321.57,-7.6,-23.22,2,1006.09,34.034,30.453472,-84.318726,90.83,NaN,,0,48.412903,,17-Aug,2504,2018-04-26 00:57:08:775,,,
5.4176,-0.2774,3.2328,4.3724,0.9359,8.7317,0.187,4.5031,3.785,-0.456,-0.9466,0.1145,17.959,-4.94,16.3,-41.8,323.99,-5.47,-26.6,2,1006.09,35.547,30.453472,-84.318726,90.83,NaN,,0,48.412903,,17-Aug,2605,2018-04-26 00:57:08:876,,,
5.3627,-4.5876,6.0827,5.871,0.3907,7.8495,2.6814,6.9742,5.1062,1.0881,-2.6554,2.4073,17.959,-6.56,15.96,-41.13,325.43,-4.05,-27.79,2,1006.11,35.547,30.453472,-84.318726,90.83,NaN,,0,48.412903,,17-Aug,2704,2018-04-26 00:57:08:975,,,
9.9728,-10.3209,9.2576,6.8658,-2.9901,6.3369,-3.6574,11.7022,-6.0236,0.7979,-0.0881,5.3389,17.959,-15.01,18.74,-37.84,307.29,5.52,-51.43,2,1006.11,35.547,30.453472,-84.318726,90.83,NaN,,0,48.412903,,17-Aug,2804,2018-04-26 00:57:09:075,,,
8.0951,-12.3267,7.9178,6.1025,-6.1451,4.6079,-20.7485,-2.928,-6.4981,1.1438,-4.4682,7.9549,17.959,-11.49,25.14,-36.51,270.05,38.79,-52.94,2,1006.11,35.547,30.453472,-84.318726,90.83,NaN,,0,48.412903,,0 / 17,2904,2018-04-26 00:57:09:175,,,
26.2433,-3.7267,11.2535,4.0741,-6.1886,6.4295,-9.5729,-0.5531,5.6748,0.9284,2.7033,-1.7381,16.903,-8.15,21.3,-40.21,242.47,44.72,-40.09,0,1006.1,36.434,30.453472,-84.318726,90.83,NaN,,0,48.412903,,0 / 17,3005,2018-04-26 00:57:09:276,,,
3.319,-10.7711,-3.5596,3.9782,-5.911,6.7432,2.9004,1.7478,8.7752,-1.0085,2.4677,-2.5381,16.903,0.11,20.34,-41.62,254.71,37.05,-30.54,0,1006.08,36.434,30.453472,-84.318726,90.83,NaN,,0,48.412903,,0 / 17,3104,2018-04-26 00:57:09:375,,,
9.0071,-3.6677,7.0578,6.4742,-3.9935,6.1947,3.6844,4.2055,1.5128,-3.5508,2.3523,-6.036,16.903,-8.83,22.43,-38.77,286.42,24.02,-46.26,0,1006.08,36.434,30.453472,-84.318726,90.83,NaN,,0,48.412903,,0 / 17,3205,2018-04-26 00:57:09:476,,,
9.0071,-3.6677,7.0578,7.2636,-3.4565,5.6151,5.6197,0.098,7.8102,-1.7371,-0.736,-2.9239,16.903,-11.1,27.57,-36.03,305.26,20.63,-52.29,0,1006.11,42.345,30.453472,-84.318726,90.83,NaN,,0,48.412903,,0 / 17,3304,2018-04-26 00:57:09:575,,,
9.0071,-3.6677,7.0578,7.2636,-3.4565,5.6151,5.6197,0.098,7.8102,-1.7371,-0.736,-2.9239,16.903,-11.1,27.57,-36.03,305.26,20.63,-52.29,0,1006.11,42.345,30.453472,-84.318726,90.83,NaN,,0,48.412903,,0 / 17,3405,2018-04-26 00:57:09:676,,,
9.0071,-3.6677,7.0578,7.2636,-3.4565,5.6151,5.6197,0.098,7.8102,-1.7371,-0.736,-2.9239,16.903,-11.1,27.57,-36.03,305.26,20.63,-52.29,0,1006.11,42.345,30.453472,-84.318726,90.83,NaN,,0,48.412903,,0 / 17,3505,2018-04-26 00:57:09:776,,,
7.1545,-7.5192,-5.4692,4.1332,-8.7616,-1.5451,3.085,-4.0188,-2.5218,3.0755,-4.3765,4.6395,16.903,-13.01,42.43,-16.78,303.07,63.27,-110.5,0,1006.12,51.271,30.453472,-84.318726,90.83,NaN,,0,48.412903,,0 / 17,3604,2018-04-26 00:57:09:875,,,
0.3383,-5.1474,1.8007,5.5408,-8.091,-0.267,7.8481,5.6048,2.6701,-1.9763,0.53,-4.5508,1.056,-7.98,39.37,-24.01,273.53,70.83,-79.84,0,1006.12,51.271,30.453472,-84.318726,90.83,NaN,,0,48.412903,,0 / 17,3705,2018-04-26 00:57:09:976,,,
-5.0383,-13.9966,-1.2999,6.5287,-7.2054,-1.3017,0.0167,-4.2623,3.9952,-1.2633,-1.1792,-1.8846,1.056,-22.42,37.48,-17.06,299.16,47.26,-101.28,0,1006.12,51.271,30.453472,-84.318726,90.83,NaN,,0,48.412903,,0 / 17,3805,2018-04-26 00:57:10:076,,,
6.7498,-4.5635,-4.7303,2.9629,-8.207,-4.4835,-4.2711,-5.5049,-7.9655,-0.1315,-2.3205,1.9613,1.056,-20.34,43.02,-3.22,311.85,56.78,-146.54,0,1006.14,52.453,30.453472,-84.318726,90.83,NaN,,0,48.412903,,0 / 17,3905,2018-04-26 00:57:10:176,,,
4.0663,-7.2495,-2.3038,4.0973,-8.9043,-0.4032,1.5781,-0.4096,2.1717,1.5487,5.418,2.2677,1.056,-11.7,43.57,-14.58,299.09,65.19,-95.62,0,1006.14,52.453,30.453472,-84.318726,90.83,NaN,,0,48.412903,,0 / 17,4005,2018-04-26 00:57:10:276,,,
2.7114,-8.3849,-2.8112,0.6508,-9.7301,1.0667,-11.8673,2.8774,4.1676,1.5318,3.3485,5.7221,1.056,2.73,41.14,-20.36,231.94,82.68,-31.39,0,1006.15,52.453,30.453472,-84.318726,90.83,NaN,,0,48.412903,,0 / 17,4104,2018-04-26 00:57:10:375,,,
-2.1602,-9.6527,1.7503,1.0369,-9.6676,1.3034,2.4469,-3.2116,-0.8595,-0.4673,-0.5066,-1.67,1.056,15.2,38.39,-20.96,226.02,80.61,-0.07,0,1006.13,52.453,30.453472,-84.318726,90.83,NaN,,0,48.412903,,0 / 17,4205,2018-04-26 00:57:10:476,,,
-4.3101,-14.176,-2.6049,0.9763,-9.6338,1.5724,1.4293,-8.4767,-4.0346,0.8217,-3.2644,0.8235,1.056,9.96,38.5,-25.19,248.58,79.12,-31.84,0,1006.13,68.358,30.453472,-84.318726,90.83,NaN,,0,48.412903,,0 / 17,4305,2018-04-26 00:57:10:576,,,
-0.7647,-19.099,5.6389,-2.7599,-9.3521,-1.0757,-7.1733,-4.3034,-1.4373,-1.8826,4.4246,3.3088,0.946,16.31,37.6,-19.79,171.19,83.4,45.91,0,1006.13,68.358,30.453472,-84.318726,90.83,NaN,,0,48.412903,,0 / 17,4405,2018-04-26 00:57:10:676,,,Out
4.2179,-5.0511,0.5784,-2.8443,-9.2807,1.4193,1.3248,1.559,-1.971,1.0839,-3.0101,-0.1231,0.946,29.41,33.67,-15.97,140.16,71.7,87.33,0,1006.14,68.358,30.453472,-84.318726,90.83,NaN,,0,48.412903,,0 / 17,4504,2018-04-26 00:57:10:775,,,Out
-6.0231,-5.6434,-0.9437,-3.4819,-9.0738,1.3338,2.0191,-0.2379,3.6944,-1.2254,-2.9923,1.6379,0.946,23.21,32.27,-25.3,136.58,67.66,69.04,0,1006.14,61.685,30.453472,-84.318726,90.83,NaN,,0,48.412903,,0 / 17,4605,2018-04-26 00:57:10:876,,,Out
1.9916,-14.9429,-4.5348,-4.2613,-8.7931,-0.8708,3.4759,2.4867,3.0978,-0.0396,0.9771,-0.4509,0.946,25.98,35.12,-16.2,102.01,63.68,101.55,0,1006.1,61.685,30.453472,-84.318726,90.83,NaN,,0,48.412903,,0 / 17,4704,2018-04-26 00:57:10:975,,,Out
-4.642,-13.4849,-4.8658,-3.8779,-9.0064,-0.2879,-0.1151,2.3171,-4.2186,-0.1582,-2.1116,-0.8239,0.946,24.37,34.79,-19.56,107.24,66.65,94.25,0,1006.1,61.685,30.453472,-84.318726,90.83,NaN,,0,48.412903,,0 / 17,4805,2018-04-26 00:57:11:076,,,Out
-3.3205,-11.4911,3.2076,-1.9774,-9.3841,-2.0652,3.7853,-3.2308,-12.5881,-1.099,-0.463,-2.2824,0.946,17.54,41.31,-15.18,66,73.05,136.24,0,1006.1,55.157,30.453472,-84.318726,90.83,NaN,,0,48.412903,,0 / 17,4905,2018-04-26 00:57:11:176,,,Out
-3.2811,-8.9423,3.1812,-1.1973,-9.7361,0.1033,-0.0495,0.867,3.5747,1.532,-0.9226,-0.821,0.946,11.19,41.52,-18.82,65.55,78.87,124.97,0,1006.12,55.157,30.453472,-84.318726,90.83,NaN,,0,48.412903,,0 / 17,5005,2018-04-26 00:57:11:276,,,Out
-0.9271,-7.4638,-1.6154,-0.2106,-9.7749,0.8024,3.3711,-1.2676,0.6954,1.1715,0.6249,-1.6619,0.946,9.96,40.16,-22.85,107.49,82.96,85.07,0,1006.14,55.157,30.453472,-84.318726,90.83,NaN,,0,48.412903,,0 / 17,5105,2018-04-26 00:57:11:376,,,Out
-3.6273,-8.6485,0.6264,0.5436,-9.3666,2.865,0.9144,-0.0643,1.8211,2.2545,-0.0477,-0.2874,0.946,6.43,37.13,-28.04,210.71,80.99,-12.35,0,1006.14,56.664,30.453472,-84.318726,90.83,NaN,,0,48.412903,,0 / 17,5205,2018-04-26 00:57:11:476,,,Out
5.8294,-6.7282,1.2873,1.4111,-9.0515,3.5092,-6.1248,9.4092,-9.2009,1.3161,-1.698,-0.8898,0.946,0.99,30.65,-35.34,218.37,67.32,-21.91,0,1006.16,56.664,30.453472,-84.318726,90.83,NaN,,0,48.412903,,0 / 17,5304,2018-04-26 00:57:11:575,,,Out
6.9754,-16.1071,4.3315,-0.3079,-7.0622,6.802,0.9638,2.9793,0.2999,2.5566,1.2018,0.3809,0.946,16.29,16.92,-40.44,219.03,46.05,2.59,0,1006.16,56.664,30.453472,-84.318726,90.83,NaN,,0,48.412903,,0 / 17,5405,2018-04-26 00:57:11:676,,,Out
1.427,-7.0039,10.2148,-2.2962,-6.8386,6.6481,-9.7958,-2.4112,-5.8733,0.1527,3.1,1.6049,0.946,23.6,13.95,-36.86,208.17,44.2,19.05,0,1006.19,56.664,30.453472,-84.318726,90.83,NaN,,0,48.412903,,0 / 17,5505,2018-04-26 00:57:11:776,,,Out
4.2513,-5.4207,14.4944,-0.3283,-6.2449,7.5584,-5.2021,-1.0233,-7.0099,1.6095,-0.9949,-4.2257,0.946,24.64,13.78,-36.18,241.36,39.54,2.49,2,1006.2,48.18,30.453472,-84.318726,90.83,NaN,,0,48.412903,,0 / 17,5605,2018-04-26 00:57:11:876,,,Out
2.3831,-5.9095,14.3972,3.9558,-1.4276,8.8628,1.1386,5.7005,-1.9126,2.9028,0.4738,-8.2877,0.946,10.19,14.84,-42.39,257.3,28.88,-16.79,2,1006.12,48.18,30.453472,-84.318726,90.83,NaN,,0,48.412903,,0 / 17,5705,2018-04-26 00:57:11:976,,,Out
0.3072,-10.0632,9.0033,1.9218,2.1332,9.3804,-1.9188,10.7279,6.6779,3.6045,3.5441,-7.4876,0.946,7.88,11.59,-42.96,284.95,8.37,-24.05,2,1006.12,48.18,30.453472,-84.318726,90.83,NaN,,0,48.412903,,0 / 17,5805,2018-04-26 00:57:12:076,,,Out
-1.931,-0.3556,-3.0895,-1.4078,4.9575,8.3473,1.4133,4.3239,1.6959,1.3508,-0.5457,-1.6544,10.564,20.2,1.45,-41.81,325.24,-25.8,7.92,2,1006.1,38.088,30.453472,-84.318726,90.83,NaN,,0,48.412903,,0 / 17,5905,2018-04-26 00:57:12:176,,,Out
0.8408,3.4658,7.6143,-1.1874,4.7301,8.5119,-2.8392,0.8391,-0.9275,-0.4751,-0.376,0.3132,10.564,18.41,0.93,-42.06,331.48,-28.83,7.94,2,1006.1,38.088,30.453472,-84.318726,90.83,NaN,,0,48.412903,,0 / 17,6005,2018-04-26 00:57:12:276,,,Out
0.9208,4.1569,11.2798,-0.4438,5.112,8.361,-1.6939,-0.0806,-0.9849,0.8362,-0.4183,0.1781,10.564,14.66,-0.19,-43.79,331.52,-31.41,3.04,2,1006.08,38.088,30.453472,-84.318726,90.83,NaN,,0,48.412903,,0 / 17,6104,2018-04-26 00:57:12:375,,,Out
0.1461,4.8949,7.5736,-0.277,6.2651,7.5438,-1.0103,1.0507,1.1945,0.9784,-0.0801,0.1562,10.564,14.24,-4.46,-44.05,332.84,-36.04,2.83,2,1006.07,37.718,30.453472,-84.318726,90.83,NaN,,0,48.412903,,0 / 17,6205,2018-04-26 00:57:12:476,,,Out
0.6654,5.5029,5.5813,-0.0875,6.5118,7.3366,-1.2906,0.8513,1.6953,0.4838,-0.1886,0.2606,10.564,13.4,-8.98,-43.86,331.08,-41.59,0.68,2,1006.05,37.718,30.453472,-84.318726,90.83,NaN,,0,48.412903,,0 / 17,6305,2018-04-26 00:57:12:576,,,Out
0.7215,6.436,5.2287,0.0728,6.8385,7.0332,-0.4695,-0.1697,0.9495,0.3724,0.0959,0.3559,10.564,14.43,-10.48,-42.55,327.53,-44.19,-0.59,2,1006.05,37.718,30.453472,-84.318726,90.83,NaN,,0,48.412903,,0 / 17,6406,2018-04-26 00:57:12:677,,,Out
0.4791,6.9188,6.2518,-0.0377,6.8915,6.9815,0.7879,-0.8564,0.0691,0.0582,0.5383,0.303,10.564,15.47,-11.61,-42.31,324.9,-44.63,0.31,2,1006.06,39.471,30.453472,-84.318726,90.83,NaN,,0,48.412903,,0 / 17,6505,2018-04-26 00:57:12:776,,,Out
-1.2888,6.5949,7.4548,0.0089,6.1193,7.6674,1.1152,0.339,-0.3092,-0.9702,0.1068,0.4381,12.677,15.31,-9.71,-42.52,326.01,-42.13,0.64,2,1006.06,39.471,30.453472,-84.318726,90.83,NaN,,0,48.412903,,0 / 17,6606,2018-04-26 00:57:12:877,,,Out
-0.5379,5.9869,9.2756,0.0888,5.7717,7.932,0.9253,-0.2047,-0.8176,-0.6116,0.192,0.4277,12.677,15.75,-7.12,-42.45,319,-36.04,-0.64,2,1006.05,39.471,30.453472,-84.318726,90.83,NaN,,0,48.412903,,0 / 17,6705,2018-04-26 00:57:12:976,,,Out
0.0124,5.8087,7.5352,0.2409,5.8867,7.8438,0.5691,0.5378,-0.4963,-0.0261,-0.1125,0.2185,12.677,15,-8.92,-42.61,318.31,-36.87,-1.76,2,1006.05,39.471,30.453472,-84.318726,90.83,NaN,,0,48.412903,,0 / 17,6805,2018-04-26 00:57:13:076,,,Out
-0.2693,5.1201,8.304,0.6818,6.2851,7.5013,-0.0904,0.6035,4.1743,0.6591,-0.3513,0.3474,12.677,14.73,-8.09,-42.7,318.35,-37.32,-2.83,2,1006.05,39.043,30.453472,-84.318726,90.83,NaN,,0,48.412903,,0 / 17,6905,2018-04-26 00:57:13:176,,,Out
0.5973,5.769,5.7108,0.7262,6.225,7.5471,0.6252,6.2507,7.4964,-0.2394,-0.6166,-0.7072,12.677,12.57,-11.35,-43.48,316.33,-39.39,-5.5,2,1006.04,39.043,30.453472,-84.318726,90.83,NaN,,0,48.412903,,0 / 17,7005,2018-04-26 00:57:13:276,,,Out
1.5081,6.9392,14.3264,-1.4866,6.0858,7.5491,-0.4185,-0.4514,4.291,-0.0692,1.3734,0.7381,12.677,22.95,-8.39,-39.44,323.38,-38.34,11.14,2,1006.05,39.043,30.453472,-84.318726,90.83,NaN,,0,48.412903,,0 / 17,7105,2018-04-26 00:57:13:376,,,Out
-1.6147,6.194,4.8796,-0.7813,5.1091,8.3381,0.2816,3.9475,2.4024,-2.0437,-1.3327,0.2907,12.677,17.97,-2.73,-42.36,325.12,-31.39,5.35,2,1006.05,43.856,30.453472,-84.318726,90.83,NaN,,0,48.412903,,0 / 17,7205,2018-04-26 00:57:13:476,,,Out
2.0393,1.4516,3.8985,3.339,5.6024,7.3281,-0.5931,4.7591,5.7901,1.767,-3.8024,2.5973,8.452,10.99,-6.75,-44.52,318.98,-30.83,-4.38,2,1006.05,43.856,30.453472,-84.318726,90.83,NaN,,0,48.412903,,0 / 17,7304,2018-04-26 00:57:13:575,,,Out
3.6938,0.1741,1.7287,9.3647,1.1128,2.7018,-1.9708,9.6394,2.826,0.941,-4.7377,6.7932,8.452,-18.26,-9.87,-39.71,293.55,-27.04,-51.62,2,1006.04,43.856,30.453472,-84.318726,90.83,NaN,,0,48.412903,,0 / 17,7405,2018-04-26 00:57:13:676,,,Out
15.6084,-6.9859,3.2448,9.3864,-2.7227,0.8474,-8.8187,2.4823,2.0384,3.0487,-3.5184,6.6738,8.452,-37.06,7.54,-26.1,261.95,16.11,-84.84,2,1006.04,39.531,30.453472,-84.318726,90.83,NaN,,0,48.412903,,0 / 17,7505,2018-04-26 00:57:13:776,,,
18.7324,-5.7578,-2.7476,7.0964,-6.6728,1.1622,-10.0892,-0.037,4.2773,2.9478,-0.3264,2.6756,8.452,-38.19,13.16,-21.65,243.25,33.65,-88.43,0,1006.04,39.531,30.453472,-84.318726,90.83,NaN,,0,48.412903,,0 / 17,7606,2018-04-26 00:57:13:877,,,
17.0755,-6.7114,-2.9347,6.4783,-7.1971,1.5716,-7.6207,-0.7465,1.9654,0.7778,0.0073,1.3928,8.452,-35.46,17.44,-22.42,217.34,47.19,-76.36,0,1006.07,39.531,30.453472,-84.318726,90.83,NaN,,0,48.412903,,0 / 17,7705,2018-04-26 00:57:13:976,,,
6.6758,-6.7812,5.6808,6.3121,-7.3902,1.3334,-0.2698,-0.4964,-3.6018,1.8226,-1.949,0.5406,8.452,-38.6,16.71,-18.15,205.12,48.88,-78.07,0,1006.07,38.094,30.453472,-84.318726,90.83,NaN,,0,48.412903,,0 / 17,7805,2018-04-26 00:57:14:076,,,
7.4326,-7.1773,4.1204,5.8347,-7.5775,2.1849,-3.6938,-4.7666,-3.1519,3.4385,-1.8895,1.5491,8.452,-39.25,16.72,-16.02,183.44,50.57,-69.47,0,1006.08,38.094,30.453472,-84.318726,90.83,NaN,,0,48.412903,,0 / 17,7905,2018-04-26 00:57:14:176,,,
9.136,-2.7346,6.4593,5.0184,-7.371,4.0891,2.2673,-2.4679,-0.8,0.0845,0.5619,0.3188,8.452,-37.53,15.4,-19.54,166.46,48.35,-55.19,0,1006.08,38.094,30.453472,-84.318726,90.83,NaN,,0,48.412903,,0 / 17,8005,2018-04-26 00:57:14:276,,,
2.6959,-5.2642,5.5009,7.2733,-6.0568,2.5787,1.1116,-2.6556,-2.3146,0.4273,-3.0271,-1.3856,8.452,-42.55,10.87,-14.43,156.22,43.39,-59.4,0,1006.09,38.094,30.453472,-84.318726,90.83,NaN,,0,48.412903,,0 / 17,8105,2018-04-26 00:57:14:376,,,
6.3833,-4.5418,6.6392,7.5819,-5.8822,2.0372,-1.4718,-1.2787,-3.1448,0.2288,-1.2341,-0.1369,8.452,-44.46,7,-4.91,162.31,36.84,-74.96,0,1006.09,36.611,30.453472,-84.318726,90.83,NaN,,0,48.412903,,0 / 17,8205,2018-04-26 00:57:14:476,,,
12.5477,-6.2695,6.2734,7.5602,-5.9465,1.9281,0.5144,-1.1976,-0.722,-0.7899,0.3688,-0.5558,8.452,-44.82,8.91,-4.72,161.48,38.43,-74.82,0,1006.08,36.611,30.453472,-84.318726,90.83,NaN,,0,48.412903,,0 / 17,8305,2018-04-26 00:57:14:576,,,
7.053,-4.7116,2.7206,8.2227,-5.1646,1.3969,-1.2528,1.8996,-4.3293,2.0921,-2.5307,-1.2278,8.452,-45.28,3.85,-0.1,159.31,31.77,-80.36,0,1006.08,36.611,30.453472,-84.318726,90.83,NaN,,0,48.412903,,0 / 17,8405,2018-04-26 00:57:14:676,,,
3.9565,-9.3468,5.0248,8.8568,-4.1982,0.4095,1.3432,-0.1206,0.6003,1.4103,-1.3846,0.7607,8.452,-44.53,-1.13,9.39,150.99,25.34,-87.35,0,1006.1,36.417,30.453472,-84.318726,90.83,NaN,,0,48.412903,,0 / 17,8507,2018-04-26 00:57:14:778,,,
7.9137,-5.1787,-2.87,6.8085,-6.9379,-1.3214,3.4525,-1.4398,-1.0975,2.4007,-1.9762,1.6395,8.452,-36.39,14.99,23.75,136.54,45.01,-100.98,0,1006.1,36.417,30.453472,-84.318726,90.83,NaN,,0,48.412903,,0 / 17,8605,2018-04-26 00:57:14:876,,,
1.2145,-5.151,-1.3743,5.8087,-7.696,-1.8076,-0.6286,-0.1661,2.2576,0.2717,-1.1885,1.8181,0.946,-32.58,20.59,26.91,138.4,51.67,-107.29,0,1006.1,36.417,30.453472,-84.318726,90.83,NaN,,0,48.412903,,0 / 17,8704,2018-04-26 00:57:14:975,,,
5.9918,-8.0104,-2.8688,1.5448,-9.5011,1.8918,-2.868,-0.4918,-2.3528,2.7892,1.1995,4.4855,0.946,-22.09,36.46,18.29,99.6,62.2,-91.1,0,1006.1,56.578,30.453472,-84.318726,90.83,NaN,,0,48.412903,,0 / 17,8806,2018-04-26 00:57:15:077,,,
-1.2912,-16.2721,3.6082,4.2922,-8.6749,1.5997,5.8144,2.416,11.6915,-1.1597,1.9669,-5.2038,0.946,-30.26,33.77,12.52,102.37,62.16,-69.56,0,1006.14,56.578,30.453472,-84.318726,90.83,NaN,,0,48.412903,,0 / 17,8906,2018-04-26 00:57:15:177,,,
3.2641,-9.7442,-2.0064,4.5,-8.6964,0.5991,-2.7084,-1.3174,-2.3055,-0.6289,-1.1552,-0.0891,0.946,-30.14,32.42,13.96,108.02,62.32,-73.6,0,1006.14,56.578,30.453472,-84.318726,90.83,NaN,,0,48.412903,,0 / 17,9004,2018-04-26 00:57:15:275,,,
4.2943,-9.3769,2.1509,4.4442,-8.717,0.7065,-0.0335,1.0195,-1.035,0.0196,1.0773,0.0658,0.946,-28.86,31.12,17.99,115.29,62.45,-84.6,0,1006.12,61.045,30.453472,-84.318726,90.83,NaN,,0,48.412903,,0 / 17,9104,2018-04-26 00:57:15:375,,,
7.2583,-7.0051,-0.0873,4.7243,-8.5474,0.9271,-4.281,-1.6481,1.2516,-0.5567,1.7157,-0.7061,0.946,-32.87,30.25,13.86,119.01,60.61,-78.9,0,1006.12,61.045,30.453472,-84.318726,90.83,NaN,,0,48.412903,,0 / 17,9204,2018-04-26 00:57:15:475,,,
6.1434,-9.1927,0.5077,6.0203,-7.702,0.8192,2.9537,1.784,0.3096,-0.3839,0.5411,-1.2462,0.946,-38,24.59,12.52,125.2,51.73,-82.25,0,1006.13,61.045,30.453472,-84.318726,90.83,NaN,,0,48.412903,,0 / 17,9305,2018-04-26 00:57:15:576,,,
2.2637,-9.566,0.1502,6.2138,-7.5601,0.6846,1.2662,-2.0003,0.2081,-0.0959,-0.2556,-0.3658,0.946,-38.42,22.71,13.03,128.02,50.41,-83.71,0,1006.12,61.045,30.453472,-84.318726,90.83,NaN,,0,48.412903,,0 / 17,9405,2018-04-26 00:57:15:676,,,
4.5306,-5.8794,-0.4003,5.9802,-7.6802,1.2197,1.3143,-1.6598,1.3566,0.4055,0.2551,0.539,0.946,-39.8,23.1,12.09,128.58,50.07,-81.46,0,1006.12,47.267,30.453472,-84.318726,90.83,NaN,,0,48.412903,,0 / 17,9505,2018-04-26 00:57:15:776,,,
6.8882,-7.2664,1.3425,5.3792,-8.0181,1.7349,-8.6999,0.3335,0.3152,0.9834,-1.161,0.9949,0.946,-36.66,26.02,11.91,120.19,54.18,-76.71,0,1006.13,47.267,30.453472,-84.318726,90.83,NaN,,0,48.412903,,0 / 17,9605,2018-04-26 00:57:15:876,,,
14.0995,-8.4017,1.1685,5.2242,-8.1704,1.4795,1.1589,4.7131,3.5297,-0.2222,-0.6019,0.5034,0.946,-37.13,26.99,9.58,117.18,54.82,-72.12,0,1006.12,47.267,30.453472,-84.318726,90.83,NaN,,0,48.412903,,0 / 17,9705,2018-04-26 00:57:15:976,,,
4.7634,-12.5627,-3.285,4.0074,-8.7589,-1.8596,2.9168,-0.7476,-1.753,-1.8801,-2.1818,1.0628,0.946,-30.48,30.73,18.67,122.56,61.26,-91.18,0,1006.12,60.709,30.453472,-84.318726,90.83,NaN,,0,48.412903,,0 / 17,9805,2018-04-26 00:57:16:076,,,
1.1989,-3.1452,4.6973,4.2567,-8.7328,-1.3621,3.8317,2.0626,-3.6072,-0.183,2.6439,-0.1145,0.946,-27.14,29.3,25.38,136.57,62.9,-107.74,0,1006.1,60.709,30.453472,-84.318726,90.83,NaN,,0,48.412903,,0 / 17,9906,2018-04-26 00:57:16:177,,,
3.7201,-11.7885,-3.3557,3.8514,-8.9656,-1.0105,0.1273,-2.2691,-0.7517,0.021,-2.1265,0.9969,0.946,-30.38,29.09,22.31,145.46,66.05,-104.7,0,1006.1,60.709,30.453472,-84.318726,90.83,NaN,,0,48.412903,,0 / 17,10007,2018-04-26 00:57:16:278,,,
3.7022,-6.7138,-0.1436,3.8806,-8.9556,-0.9871,0.652,2.21,0.4587,0.3314,-0.4475,-0.119,0.946,-27.63,31.38,24.45,136.97,65.91,-104.27,0,1006.11,55.36,30.453472,-84.318726,90.83,NaN,,0,48.412903,,0 / 17,10105,2018-04-26 00:57:16:376,,,
2.5419,-12.7204,-0.1484,2.3986,-9.5037,0.4036,1.294,1.5189,0.414,1.0227,0.0054,2.1492,0.946,-27,33.85,17.58,123.06,75.64,-80.45,0,1006.11,55.36,30.453472,-84.318726,90.83,NaN,,0,48.412903,,0 / 17,10206,2018-04-26 00:57:16:477,,,
2.8188,-14.5625,0.1574,-0.6076,-9.3759,2.8213,-4.0704,-1.7781,2.4759,1.9756,-0.9462,1.7878,0.946,-14.04,44.36,9.74,50.21,80.9,-13.65,0,1006.11,55.36,30.453472,-84.318726,90.83,NaN,,0,48.412903,,0 / 17,10305,2018-04-26 00:57:16:576,,,
7.287,-11.4394,0.9383,-0.8756,-9.1989,3.294,-1.1068,0.6086,7.2261,0.766,0.4664,0.1957,0.946,-12.18,45.85,6.24,22.47,69.67,14.89,0,1006.11,56.099,30.453472,-84.318726,90.83,NaN,,0,48.412903,,0 / 17,10404,2018-04-26 00:57:16:675,,,Out
0.5448,-10.0283,-4.3081,0.635,-9.6224,1.8008,8.7118,6.4747,-10.5868,0.0315,1.5865,-0.2978,0.946,-18.42,42.79,9.93,56.92,79,-15.27,0,1006.11,56.099,30.453472,-84.318726,90.83,NaN,,0,48.412903,,0 / 17,10505,2018-04-26 00:57:16:776,,,Out
8.7731,-4.6249,-5.9573,1.102,-9.5059,2.1586,0.9138,0.7889,5.5368,0.3517,3.1736,-1.6926,0.946,-23.86,40.24,2.88,85.23,75.7,-27.04,0,1006.11,56.099,30.453472,-84.318726,90.83,NaN,,0,48.412903,,0 / 17,10604,2018-04-26 00:57:16:875,,,Out
1.9474,-10.0114,3.5051,4.4572,-8.57,1.7102,1.1095,3.9729,-0.5337,-0.2998,-0.4665,-2.5915,0.946,-35.57,29.6,4.36,129.09,60.88,-69.01,0,1006.21,56.099,30.453472,-84.318726,90.83,NaN,,0,48.412903,,0 / 17,10705,2018-04-26 00:57:16:976,,,Out
-3.0507,-8.1826,1.8666,5.8273,-7.4991,2.4581,-3.6511,0.584,0.4432,0.5919,0.0513,-2.5174,0.946,-40.73,23.1,4.26,132.51,51.69,-71.68,0,1006.12,67.055,30.453472,-84.318726,90.83,NaN,,0,48.412903,,0 / 17,10805,2018-04-26 00:57:17:076,,,Out
9.4213,-8.1344,2.0681,6.0988,-7.1217,2.8848,-5.7988,1.8883,0.896,0.8896,0.2379,-0.664,0.946,-40.33,22.73,3.96,113.92,46.55,-64.69,0,1006.12,67.055,30.453472,-84.318726,90.83,NaN,,0,48.412903,,0 / 17,10905,2018-04-26 00:57:17:176,,,Out
6.6328,-10.3618,4.5882,6.4894,-5.5717,4.8041,2.2021,0.8074,1.6886,2.8513,-0.6006,0.0622,0.946,-41.42,20.44,-0.56,109.69,40.29,-57.77,0,1006.12,67.055,30.453472,-84.318726,90.83,NaN,,0,48.412903,,0 / 17,11005,2018-04-26 00:57:17:276,,,Out
-2.7511,-10.1981,7.0902,5.4406,-5.3602,6.1567,-0.8759,-0.2987,6.5189,3.1922,1.114,2.3198,0.946,-36.18,26.27,-11.35,77.83,33.12,-41.47,0,1006.12,57.617,30.453472,-84.318726,90.83,NaN,,0,48.412903,,0 / 17,11104,2018-04-26 00:57:17:375,,,Out
9.8284,-4.7405,7.8363,2.5962,-6.268,7.0857,-17.0782,-10.4274,1.6974,0.041,-0.9691,3.5769,0.946,-30.13,33.01,-13.89,58.67,34.38,-25.61,0,1006.12,57.617,30.453472,-84.318726,90.83,NaN,,0,48.412903,,0 / 17,11204,2018-04-26 00:57:17:475,,,Out
19.5119,4.1135,5.5273,4.4074,-6.2352,6.159,-10.2932,-5.6905,-6.443,-1.1534,-0.4516,-0.4279,0.946,-24.69,39.29,-9.97,49.94,42.38,-23.73,0,1006.11,57.617,30.453472,-84.318726,90.83,NaN,,0,48.412903,,0 / 17,11305,2018-04-26 00:57:17:576,,,Out
9.9072,-3.7869,13.2901,6.3685,-3.8339,6.4016,-1.1713,2.8951,-2.2523,2.4353,-1.4267,-4.3642,0.946,-39.06,24.06,-7.78,67.48,23.01,-44.85,2,1006.11,52.33,30.453472,-84.318726,90.83,NaN,,0,48.412903,,0 / 17,11407,2018-04-26 00:57:17:678,,,Out
5.9416,-6.6885,6.211,7.2703,1.257,6.4652,0.4991,5.5067,-1.3807,1.0871,-0.9166,-3.9088,0.946,-43.9,10.88,-10.07,72.83,5.43,-45.57,2,1006.11,52.33,30.453472,-84.318726,90.83,NaN,,0,48.412903,,0 / 17,11505,2018-04-26 00:57:17:776,,,Out
6.6925,-4.4503,8.0126,6.7998,3.3517,6.2261,-1.0097,4.7367,-0.8058,0.8303,-0.1453,-3.97,5.282,-43.7,-12.99,-8.39,88.28,-19.98,-47.52,2,1006.11,52.33,30.453472,-84.318726,90.83,NaN,,0,48.412903,,0 / 17,11605,2018-04-26 00:57:17:876,,,Out
6.2389,-1.1647,6.3717,4.4964,4.9557,7.1735,0.6057,5.877,-0.4195,-2.2068,1.1671,-3.4086,5.282,-33.85,-29.64,-8.81,118.26,-30.34,-32.08,2,1006.1,54.865,30.453472,-84.318726,90.83,NaN,,0,48.412903,,0 / 17,11705,2018-04-26 00:57:17:976,,,Out
4.009,-0.4158,7.1502,0.7948,4.0065,8.9192,-0.6661,0.6825,1.5068,-2.5381,3.4561,-1.722,5.282,-19.36,-32.88,-25.93,146.43,-24.1,-14.5,2,1006.1,54.865,30.453472,-84.318726,90.83,NaN,,0,48.412903,,0 / 17,11804,2018-04-26 00:57:18:075,,,Out
1.3887,3.6392,7.7151,-0.0563,4.6839,8.6194,-0.7405,0.1779,-0.9265,1.2067,1.1278,-1.0607,5.282,-15.17,-34.96,-27.33,148.44,-24.1,-5.09,2,1006.09,54.865,30.453472,-84.318726,90.83,NaN,,0,48.412903,,0 / 17,11905,2018-04-26 00:57:18:176,,,Out
0.0136,4.7878,9.4543,-1.5248,5.5118,7.9706,0.8838,-2.8078,3.6328,-0.0488,-1.0051,-0.6451,5.282,-5.86,-40.21,-24.53,150.99,-34.49,11.79,2,1006.09,54.865,30.453472,-84.318726,90.83,NaN,,0,48.412903,,0 / 17,12004,2018-04-26 00:57:18:275,,,Out
-1.3795,5.9279,10.4942,-0.5034,5.4477,8.1428,0.8932,-0.08,-3.8365,-0.0559,-2.0923,-0.2212,5.282,-7.92,-40.91,-22.09,157.16,-33.73,3.54,2,1006.09,33.135,30.453472,-84.318726,90.83,NaN,,0,48.412903,,0 / 17,12104,2018-04-26 00:57:18:375,,,Out
-2.4945,4.9683,9.6162,-0.2517,5.9433,7.8007,0.4824,0.7588,-1.2,0.1526,-0.0845,0.3956,5.282,-8.06,-41.79,-20.78,157.24,-36.37,2.96,2,1006.08,33.135,30.453472,-84.318726,90.83,NaN,,0,48.412903,,0 / 17,12204,2018-04-26 00:57:18:475,,,Out
-1.1396,4.7408,7.6516,-0.2523,5.9168,7.8208,0.823,1.1329,0.2901,0.0037,0.2769,0.3819,14.79,-10.4,-40.4,-20.44,152.04,-37.09,1.85,2,1006.07,33.135,30.453472,-84.318726,90.83,NaN,,0,48.412903,,0 / 17,12305,2018-04-26 00:57:18:576,,,Out
-1.1539,4.9876,6.0827,-0.003,5.7842,7.9233,0.0926,0.8123,0.7954,-0.4767,0.0697,0.4767,14.79,-11.46,-40.1,-20.24,151.79,-36.13,0.02,2,1006.07,30.891,30.453472,-84.318726,90.83,NaN,,0,48.412903,,0 / 17,12406,2018-04-26 00:57:18:677,,,Out
-0.2013,5.0141,7.3253,0.327,5.7727,7.9249,-0.1603,0.4686,0.5963,0.0699,0.1078,0.493,14.79,-13.61,-39.62,-21.04,145.88,-35.87,-1.36,2,1006.06,30.891,30.453472,-84.318726,90.83,NaN,,0,48.412903,,0 / 17,12505,2018-04-26 00:57:18:776,,,Out
0.3979,6.0664,7.0422,0.5208,5.7408,7.9378,-1.1101,1.1761,-1.5771,-0.063,-0.1255,0.3623,14.79,-14.91,-39.25,-21.36,143.12,-36.05,-2.36,2,1006.06,30.891,30.453472,-84.318726,90.83,NaN,,0,48.412903,,0 / 17,12606,2018-04-26 00:57:18:877,,,Out
0.9351,5.1887,9.1472,0.8547,5.5998,8.0092,0.246,4.2382,-1.416,-0.2581,0.6547,0.7303,14.79,-16.71,-38.66,-20.46,141.71,-35.85,-5.53,2,1006.06,27.838,30.453472,-84.318726,90.83,NaN,,0,48.412903,,0 / 17,12706,2018-04-26 00:57:18:977,,,Out
-1.2064,3.4959,6.8287,0.3683,4.9762,8.4462,-0.5695,2.6092,3.79,-1.0737,1.4358,1.3839,14.79,-17.86,-34.94,-25.85,134.55,-30.48,-2.5,2,1006.05,27.838,30.453472,-84.318726,90.83,NaN,,0,48.412903,,0 / 17,12805,2018-04-26 00:57:19:076,,,Out
2.678,1.5563,3.7066,5.2002,2.4465,7.9503,-0.8417,5.4654,4.8825,-2.589,-4.6124,2.2801,14.79,-25.56,-30.79,-24.97,127.53,-26.04,-15.07,2,1006.04,27.838,30.453472,-84.318726,90.83,NaN,,0,48.412903,,0 / 17,12905,2018-04-26 00:57:19:176,,,Out
8.5272,-5.6181,3.1021,9.3379,-2.3688,1.8516,-0.7373,4.527,-1.794,-0.2515,-6.9243,3.7122,15.847,-43.68,-12.86,-10.68,128.66,0.89,-53.86,2,1006.04,42.172,30.453472,-84.318726,90.83,NaN,,0,48.412903,,0 / 17,13006,2018-04-26 00:57:19:277,,,Out
10.867,-4.9271,3.0949,8.4121,-5.0411,0.2457,-5.218,0.8837,0.2379,-0.13,-2.5335,4.6849,15.847,-41.09,9.99,18.04,122.47,30.92,-88.33,2,1006.04,42.172,30.453472,-84.318726,90.83,NaN,,0,48.412903,,0 / 17,13105,2018-04-26 00:57:19:376,,,Out
13.1458,-8.4078,2.5131,5.9343,-7.7967,-0.4824,-4.5192,2.5542,-2.1367,0.8375,-0.798,2.5399,15.847,-31.35,24.61,24.17,117.04,52.63,-94.65,0,1006.04,42.172,30.453472,-84.318726,90.83,NaN,,0,48.412903,,0 / 17,13204,2018-04-26 00:57:19:475,,,Out
9.6374,-10.7988,-0.5838,4.8013,-8.5475,-0.351,-7.071,2.0682,-2.8071,1.2709,-1.5983,2.1316,15.847,-25.84,30.36,24.87,99.94,52.63,-94.65,0,1006.04,42.172,30.453472,-84.318726,90.83,NaN,,0,48.412903,,0 / 17,13305,2018-04-26 00:57:19:576,,,Out
9.7126,-8.6666,1.2789,4.1872,-8.5709,2.2898,-5.7109,-0.1726,0.3175,2.2119,1.1413,-0.482,15.847,-18.11,39.68,18.54,79.42,65.01,-79.14,2,1006.06,45.855,30.453472,-84.318726,90.83,NaN,,0,48.412903,,0 / 17,13406,2018-04-26 00:57:19:677,,,Out
8.7815,-6.6536,0.2222,4.6427,-7.8676,3.5753,-1.9322,-3.909,3.798,1.0431,2.4547,-1.8085,15.847,-25.54,38.78,6.75,64.53,53.32,-52.4,2,1006.08,45.855,30.453472,-84.318726,90.83,NaN,,0,48.412903,,0 / 17,13507,2018-04-26 00:57:19:778,,,
6.9551,-3.2343,1.5812,5.7181,-6.5832,4.4945,7.3912,0.5577,-0.7928,-0.9648,2.5826,-2.2295,15.847,-36.8,28.07,0.68,86,42.15,-51.83,0,1006.08,45.855,30.453472,-84.318726,90.83,NaN,,0,48.412903,,0 / 17,13605,2018-04-26 00:57:19:876,,,
6.6973,-3.073,4.0196,5.8267,-6.6039,4.3214,-2.2416,-0.7663,0.6119,-1.3449,0.6249,-0.7867,15.847,-37.38,27.4,-0.52,88.44,41.78,-50.76,0,1006.1,42.371,30.453472,-84.318726,90.83,NaN,,0,48.412903,,0 / 17,13704,2018-04-26 00:57:19:975,,,
8.7397,-4.5563,3.7701,6.0629,-6.7029,3.8142,-2.0477,-1.3698,-0.5612,-1.9287,0.7978,-1.0271,6.339,-39.67,24.34,0.08,104.76,43.1,-57.83,0,1006.1,42.371,30.453472,-84.318726,90.83,NaN,,0,48.412903,,0 / 17,13807,2018-04-26 00:57:20:078,,,
9.7317,-5.8337,4.3531,7.4505,-6.2069,1.4837,-2.6161,1.0648,2.197,-2.2992,-1.3809,-1.5538,6.339,-42.23,17.58,6.15,128.94,39.25,-78.74,0,1006.12,42.371,30.453472,-84.318726,90.83,NaN,,0,48.412903,,0 / 17,13907,2018-04-26 00:57:20:178,,,
7.3813,-10.7049,3.9393,7.954,-5.7418,0.0502,0.08,2.7907,-1.7015,-0.8152,-2.1685,-0.9852,6.339,-42.1,10.77,16.45,133.81,35.82,-89.64,0,1006.14,42.529,30.453472,-84.318726,90.83,NaN,,0,48.412903,,0 / 17,14004,2018-04-26 00:57:20:275,,,
8.5093,-5.7711,0.1118,8.596,-4.6792,-0.67,0.8892,1.2662,-0.3902,0.6211,-0.8727,-1.1258,6.339,-41.55,8.65,19.83,130.33,32.4,-92.57,0,1006.14,42.529,30.453472,-84.318726,90.83,NaN,,0,48.412903,,0 / 17,14105,2018-04-26 00:57:20:376,,,
4.8327,-5.9143,0.8063,8.5451,-4.8099,-0.2868,3.2178,0.8216,-0.5938,0.7423,0.1582,-0.4777,6.339,-40.84,6.37,19.54,126.47,26.79,-92.42,0,1006.17,42.529,30.453472,-84.318726,90.83,NaN,,0,48.412903,,0 / 17,14206,2018-04-26 00:57:20:477,,,
11.1355,-3.4089,-0.8753,8.138,-5.4681,-0.3304,-3.1581,-2.2325,0.5305,0.6265,-0.5605,1.2671,6.339,-40.36,13.69,20.89,119.89,33.88,-92.33,0,1006.19,41.111,30.453472,-84.318726,90.83,NaN,,0,48.412903,,0 / 17,14305,2018-04-26 00:57:20:576,,,
12.1884,-2.4288,-3.9459,7.6193,-5.9262,-1.7501,1.2947,1.2177,-2.3662,1.3619,-2.4615,0.1754,6.339,-36.59,15.1,24.26,120.79,36.08,-97.46,0,1006.19,41.111,30.453472,-84.318726,90.83,NaN,,0,48.412903,,0 / 17,14405,2018-04-26 00:57:20:676,,,
6.2174,-7.2279,0.6912,7.0544,-6.4854,-2.1004,2.0616,3.2194,-2.6357,2.124,-2.5043,0.6227,1.183,-28.01,21.9,30.5,108.37,41.38,-106.58,0,1006.11,41.111,30.453472,-84.318726,90.83,NaN,,0,48.412903,,0 / 17,14506,2018-04-26 00:57:20:777,,,
5.445,-5.0715,-3.2658,6.0229,-7.6351,-1.2907,5.9767,-7.4553,-4.5593,0.9758,-1.5359,0.1723,1.183,-21.95,30.4,29.99,96.46,51.1,-102.1,0,1006.11,41.111,30.453472,-84.318726,90.83,NaN,,0,48.412903,,0 / 17,14605,2018-04-26 00:57:20:876,,,
2.7233,-6.9798,2.0861,5.7111,-7.8836,-1.2118,0.5565,5.1286,-0.4506,0.9814,-0.9938,0.6047,1.183,-21.19,32.17,29.08,95.48,53.48,-101.98,0,1006.08,60.029,30.453472,-84.318726,90.83,NaN,,0,48.412903,,0 / 17,14705,2018-04-26 00:57:20:976,,,
3.3393,-11.7632,-3.0211,0.9163,-9.73,-0.8501,-5.1362,-0.7316,-0.289,0.2864,-3.6282,4.4442,1.183,-3.53,39.77,26.3,71.43,67.43,-97.69,0,1006.07,60.029,30.453472,-84.318726,90.83,NaN,,0,48.412903,,0 / 17,14806,2018-04-26 00:57:21:077,,,
4.6775,-9.088,-0.1376,-1.3455,-9.714,-0.2516,-3.1931,-0.7693,-0.9012,-0.3199,-3.0309,0.2838,1.183,20.35,38.94,19.57,212.81,83.41,107.29,0,1006.08,60.029,30.453472,-84.318726,90.83,NaN,,0,48.412903,,0 / 17,14906,2018-04-26 00:57:21:177,,,
-1.1539,-9.33,2.4867,-1.1333,-9.7327,-0.475,1.2982,0.3223,-2.8042,-0.695,-1.733,-0.4646,1.183,24.76,36.97,17,193.65,82.8,112.74,0,1006.08,57.737,30.453472,-84.318726,90.83,NaN,,0,48.412903,,0 / 17,15005,2018-04-26 00:57:21:276,,,
-1.7543,-10.7314,1.983,-0.8743,-9.7548,-0.5625,-0.8726,-1.4892,-7.4602,-0.1129,-2.9079,0.1529,1.183,23.25,38.44,15.47,166,84.23,135.11,0,1006.09,57.737,30.453472,-84.318726,90.83,NaN,,0,48.412903,,0 / 17,15105,2018-04-26 00:57:21:376,,,
-3.1295,-10.6435,-1.2879,-0.7043,-9.7517,-0.8024,2.3071,-0.2341,1.8635,-0.5538,-2.5993,-0.5482,1.183,27.31,38.02,9.46,144.73,83.75,138.72,0,1006.09,57.737,30.453472,-84.318726,90.83,NaN,,0,48.412903,,0 / 17,15205,2018-04-26 00:57:21:476,,,
0.5508,-8.2524,3.0361,-0.6573,-9.7268,-1.0924,0.6514,0.5032,-1.0557,-0.8428,0,-0.4107,1.183,27.65,38.85,3.98,119.97,82.53,148.96,0,1006.1,59.694,30.453472,-84.318726,90.83,NaN,,0,48.412903,,0 / 17,15307,2018-04-26 00:57:21:578,,,
1.3243,-8.8544,0.7284,-0.0367,-9.7609,-0.9793,0.0143,-0.279,-3.7098,0.1121,-1.8193,-0.7239,1.183,25.4,41.03,-1.22,80.56,84.27,177.85,0,1006.13,59.694,30.453472,-84.318726,90.83,NaN,,0,48.412903,,0 / 17,15405,2018-04-26 00:57:21:676,,,
-1.1467,-9.7249,3.2016,0.0526,-9.8011,-0.4143,2.6115,0.4246,0.9595,0.9348,-1.5249,-0.2321,1.183,24.24,41.92,-2.24,77.6,84.27,177.85,0,1006.13,59.694,30.453472,-84.318726,90.83,NaN,,0,48.412903,,0 / 17,15504,2018-04-26 00:57:21:775,,,
-3.0591,-9.9356,-0.1628,-0.7465,-9.7333,0.9702,0.143,0.6762,1.0016,0.8609,-3.0471,1.0298,1.183,23.25,40.47,-12.3,208.02,87.61,36.18,0,1006.13,52.805,30.453472,-84.318726,90.83,NaN,,0,48.412903,,0 / 17,15604,2018-04-26 00:57:21:875,,,
-2.1924,-10.3943,-1.2171,-1.1751,-9.6564,1.2689,3.7288,2.7527,1.5484,0.0652,-4.0154,1.1976,1.183,19.12,36.6,-24.05,174.25,79.85,42.8,0,1006.11,52.805,30.453472,-84.318726,90.83,NaN,,0,48.412903,,0 / 17,15705,2018-04-26 00:57:21:976,,,
-5.1839,-12.4073,-0.1304,-2.3702,-9.5114,-0.3897,-0.1093,-0.4815,-3.0561,-1.9861,1.4485,0.9169,1.183,20.02,36.86,-23.87,150.79,78.25,61.71,0,1006.11,52.805,30.453472,-84.318726,90.83,NaN,,0,48.412903,,0 / 17,15805,2018-04-26 00:57:22:076,,,
-1.3879,-6.609,3.1488,-2.4942,-9.4721,-0.5427,-0.3996,-1.251,-0.0904,-0.9368,0.9772,0.1204,1.183,23.27,39.38,-14.36,97.42,74.26,117.1,0,1006.11,52.805,30.453472,-84.318726,90.83,NaN,,0,48.412903,,0 / 17,15906,2018-04-26 00:57:22:177,,,
0.3681,-7.4374,-0.1232,-2.3939,-9.5095,-0.2736,-3.0374,-0.9392,-1.4839,0.354,0.8846,-0.1617,1.183,22.38,38.16,-19.05,114.55,75.78,96.52,0,1006.1,60.111,30.453472,-84.318726,90.83,NaN,,0,48.412903,,0 / 17,16006,2018-04-26 00:57:22:277,,,
0.663,-14.2025,-4.1882,-2.091,-9.546,-0.8587,0.3575,-1.5926,2.6291,-0.1235,-2.6979,-0.0062,1.183,23.83,39.38,-16.29,105.66,76.68,112.33,0,1006.1,60.111,30.453472,-84.318726,90.83,NaN,,0,48.412903,,0 / 17,16105,2018-04-26 00:57:22:376,,,
-2.4873,-7.9924,-3.3509,-2.2553,-9.4133,-1.5938,-3.2411,-1.4493,-3.4831,-1.2477,0.1019,0.2966,1.183,21.78,40.18,-15.24,84.67,73.65,125.25,0,1006.11,60.111,30.453472,-84.318726,90.83,NaN,,0,48.412903,,0 / 17,16205,2018-04-26 00:57:22:476,,,
-2.7535,-11.5646,-1.6525,-2.9517,-9.1848,-1.7786,3.7976,-0.0343,3.04,0.1463,0.5419,0.8176,1.183,26.15,38.67,-10.81,95.46,71.72,124.31,0,1006.1,56.243,30.453472,-84.318726,90.83,NaN,,0,48.412903,,0 / 17,16307,2018-04-26 00:57:22:578,,,
-4.6288,-9.3661,-1.6058,-2.0581,-9.4683,-1.5332,-3.9419,2.0293,-1.2701,0.0796,-0.0926,0.2465,1.183,27.21,37.46,-11.79,97.52,68.35,118.47,0,1006.1,56.243,30.453472,-84.318726,90.83,NaN,,0,48.412903,,0 / 17,16404,2018-04-26 00:57:22:675,,,
2.5168,-10.4509,-1.6933,-0.1401,-9.8054,-0.2641,-3.69,0.1572,-2.2094,2.1308,-1.5111,-3.282,1.183,24,40.64,-12.02,92.23,74.83,126.68,0,1006.09,56.243,30.453472,-84.318726,90.83,NaN,,0,48.412903,,0 / 17,16505,2018-04-26 00:57:22:776,,,
4.1678,-9.985,2.3944,1.7832,-9.5786,1.1428,3.5324,-3.3016,1.3624,1.7779,-0.932,-0.1882,1.183,11.16,42.28,-18.29,307.2,80.87,-81.44,0,1006.12,58.465,30.453472,-84.318726,90.83,NaN,,0,48.412903,,0 / 17,16604,2018-04-26 00:57:22:875,,,
4.1892,-9.7767,-0.6594,1.1145,-9.5901,1.7392,-1.1027,1.8024,2.5336,0.8273,0.5082,1.0846,1.183,11.36,39.24,-24.69,253.91,77.84,-32.65,0,1006.12,58.465,30.453472,-84.318726,90.83,NaN,,0,48.412903,,0 / 17,16707,2018-04-26 00:57:22:978,,,
2.5884,-11.4201,0.702,1.2512,-9.5607,1.8068,-5.5757,3.629,1.1295,0.3503,-0.4245,-1.6695,1.183,13.49,39.43,-24.13,262.33,77.05,-34.7,0,1006.11,58.465,30.453472,-84.318726,90.83,NaN,,0,48.412903,,0 / 17,16805,2018-04-26 00:57:23:076,,,
-0.0616,-11.3623,0.7283,3.0039,-9.0989,2.1029,-3.689,0.0292,-4.9991,0.3778,-0.283,-2.8139,1.183,6.11,38.76,-26.78,280.58,68.05,-55.01,0,1006.11,56.738,30.453472,-84.318726,90.83,NaN,,0,48.412903,,0 / 17,16905,2018-04-26 00:57:23:176,,,
7.306,-8.9929,6.8347,4.3463,-8.1756,3.2412,3.0716,0.3643,3.0616,2.0328,1.1318,-1.2168,1.183,-0.48,37.93,-27.64,282.38,64.19,-64.09,0,1006.11,56.738,30.453472,-84.318726,90.83,NaN,,0,48.412903,,0 / 17,17005,2018-04-26 00:57:23:276,,,
2.8618,-9.9958,4.2535,4.284,-7.2695,5.0037,-3.1602,-1.0467,2.2393,2.3614,-0.677,0.5794,1.183,-0.05,30.23,-34.6,268.63,52.51,-47.19,0,1006.1,56.738,30.453472,-84.318726,90.83,NaN,,0,48.412903,,0 / 17,17105,2018-04-26 00:57:23:376,,,
12.6349,-0.6674,-0.1364,5.2025,-6.5386,5.1397,-0.6522,-6.0725,-2.4578,-0.2949,0.6619,-2.6125,1.183,-4.13,26.74,-37.61,271.02,41.8,-45.35,0,1006.1,56.738,30.453472,-84.318726,90.83,NaN,,0,48.412903,,0 / 17,17205,2018-04-26 00:57:23:476,,,
5.8438,-0.2292,9.1928,7.1005,-3.9816,5.4742,0.6255,-4.9358,-3.8556,0.6757,0.4494,-3.2148,3.169,-6.6,27.25,-36.57,283.78,34.57,-51.3,2,1006.12,53.519,30.453472,-84.318726,90.83,NaN,,0,48.412903,,0 / 17,17305,2018-04-26 00:57:23:576,,,
6.0371,-0.6518,8.6387,7.3902,-2.0873,6.1045,0.8515,0.6994,-1.5287,0.9916,0.9767,-3.1918,3.169,-11.14,19.28,-39.5,296.45,12.29,-50.44,2,1006.11,53.519,30.453472,-84.318726,90.83,NaN,,0,48.412903,,0 / 17,17406,2018-04-26 00:57:23:677,,,
6.129,-3.5148,10.096,5.642,-0.1911,8.023,-3.3423,2.6208,-0.2347,1.9669,2.7685,0.0209,3.169,-5.34,11.99,-43.24,298.6,1.12,-35.12,2,1006.11,53.519,30.453472,-84.318726,90.83,NaN,,0,48.412903,,0 / 17,17505,2018-04-26 00:57:23:776,,,
9.7401,-1.1442,14.6179,4.1822,1.7448,8.7006,-0.3272,4.1065,-1.1114,2.5263,-0.231,-1.0014,3.169,3.28,9.88,-43.8,295.45,-0.25,-25.09,2,1006.11,46.08,30.453472,-84.318726,90.83,NaN,,0,48.412903,,0 / 17,17605,2018-04-26 00:57:23:876,,,
4.73,-3.3619,10.2831,3.7122,2.3084,8.7822,-1.0947,0.581,-2.0545,0.4991,0.5617,-1.2471,3.169,5.47,1.05,-44.84,294.89,-13.61,-22.91,2,1006.11,46.08,30.453472,-84.318726,90.83,NaN,,0,48.412903,,0 / 17,17706,2018-04-26 00:57:23:977,,,
4.4172,1.0434,8.1805,4.1231,4.5114,7.6736,1.2631,5.0827,-0.983,1.2624,-1.3262,-1.9855,3.169,1.53,-1.92,-45.39,300.02,-20.06,-24.59,2,1006.11,46.08,30.453472,-84.318726,90.83,NaN,,0,48.412903,,0 / 17,17807,2018-04-26 00:57:24:078,,,
3.313,1.0217,9.4507,3.0956,5.3648,7.6073,0.0806,2.6057,-0.5365,1.1922,1.2458,-1.4145,3.169,5.73,-9.26,-44.26,301.4,-33.15,-22.14,2,1006.09,39.714,30.453472,-84.318726,90.83,NaN,,0,48.412903,,0 / 17,17905,2018-04-26 00:57:24:176,,,
0.3383,3.1347,4.9348,1.19,7.0602,6.7063,0.5638,2.2247,3.1388,1.3164,1.2228,-0.4491,17.959,10.29,-13.19,-42.95,306.4,-40.75,-15.33,2,1006.08,39.714,30.453472,-84.318726,90.83,NaN,,0,48.412903,,0 / 17,18005,2018-04-26 00:57:24:276,,,
-0.7552,5.7076,5.8979,0.6797,7.1752,6.6551,1.3178,1.4108,0.9021,0.1212,0.7097,-0.4283,17.959,15.13,-16.38,-40.13,311.97,-47.01,-5.83,2,1006.08,39.714,30.453472,-84.318726,90.83,NaN,,0,48.412903,,0 / 17,18105,2018-04-26 00:57:24:376,,,
1.033,5.7112,7.0578,0.7326,6.9394,6.8952,-0.2731,1.0177,-0.3162,-0.3056,-0.2472,-0.1843,17.959,14.42,-15.01,-40.57,313.28,-45.02,-6.06,2,1006.08,34.585,30.453472,-84.318726,90.83,NaN,,0,48.412903,,0 / 17,18204,2018-04-26 00:57:24:475,,,
0.7358,6.4733,5.7072,0.7315,6.8176,7.0158,0.2414,0.0604,0.682,-0.3216,-0.1811,-0.2183,17.959,14.66,-13.32,-41.09,313.87,-44.92,-6.02,2,1006.07,34.585,30.453472,-84.318726,90.83,NaN,,0,48.412903,,0 / 17,18304,2018-04-26 00:57:24:575,,,
0.164,6.7033,6.5852,0.7818,6.7288,7.0957,0.0685,0.0392,-0.1774,-0.1652,-0.1725,-0.0422,17.959,13.92,-12.36,-41.74,315.51,-43.31,-6.29,2,1006.07,34.585,30.453472,-84.318726,90.83,NaN,,0,48.412903,,0 / 17,18405,2018-04-26 00:57:24:676,,,
1.0533,6.8971,7.2593,0.5672,7.0028,6.8465,0.2236,-0.5533,0.0915,0.4569,0.1616,-0.0609,17.959,13.86,-12.36,-41.13,318.99,-45.55,-4.74,2,1006.07,34.585,30.453472,-84.318726,90.83,NaN,,0,48.412903,,0 / 17,18505,2018-04-26 00:57:24:776,,,
0.4982,8.4948,6.2302,0.5186,7.1309,6.717,1.0533,0.1923,-1.0652,0.2558,0.0607,-0.03,17.959,14.59,-13.88,-41.66,317.69,-46.63,-4.41,2,1006.07,27.294,30.453472,-84.318726,90.83,NaN,,0,48.412903,,0 / 17,18605,2018-04-26 00:57:24:876,,,
-0.5988,6.9549,7.8434,0.7595,7.2693,6.5435,-0.0723,0.9733,0.7442,0.0406,-0.2461,0.3109,17.959,13.46,-15.77,-41.37,318.7,-47.57,-4.7,2,1006.07,27.294,30.453472,-84.318726,90.83,NaN,,0,48.412903,,0 / 17,18705,2018-04-26 00:57:24:976,,,
1.2897,6.2349,7.1046,1.2531,6.4295,7.3025,1.2138,1.1936,0.2818,-0.8484,0.3766,0.5198,29.58,10.91,-13.21,-42.99,316.36,-44.33,-9.76,2,1006.07,27.294,30.453472,-84.318726,90.83,NaN,,0,48.412903,,0 / 17,18805,2018-04-26 00:57:25:076,,,
-0.1703,4.4555,6.2446,1.3268,5.8253,7.7808,1.2333,3.0049,0.8222,-1.2362,0.254,0.6408,29.58,12.82,-8.96,-43.36,309.69,-36.43,-9.68,2,1006.08,29.19,30.453472,-84.318726,90.83,NaN,,0,48.412903,,0 / 17,18907,2018-04-26 00:57:25:178,,,
0.3156,3.2202,2.8406,4.539,4.2632,7.5802,1.674,4.6436,4.9057,-0.8812,-4.3015,1.9233,29.58,10.64,-6.33,-44.51,307.36,-31.13,-13.47,2,1006.08,29.19,30.453472,-84.318726,90.83,NaN,,0,48.412903,,0 / 17,19005,2018-04-26 00:57:25:276,,,
2.8165,-0.4254,2.789,7.2867,2.2226,6.1806,0.5991,4.4255,2.6725,-1.5708,-4.5247,3.5804,29.58,-11.31,1.61,-43.9,291.28,-13.1,-49.7,2,1006.07,29.19,30.453472,-84.318726,90.83,NaN,,0,48.412903,,0 / 17,19107,2018-04-26 00:57:25:378,,,
8.6538,-8.6485,4.7645,8.7578,-3.6716,2.4609,1.5068,10.5073,-2.0041,0.5494,-2.4638,5.8676,29.58,-26.63,17.03,-32.07,276.78,21.98,-74.31,2,1006.07,40.869,30.453472,-84.318726,90.83,NaN,,0,48.412903,,0 / 17,19206,2018-04-26 00:57:25:477,,,
7.3598,-14.3975,4.5018,4.2109,-8.8184,0.8601,-3.0485,6.8196,-1.3563,0.313,-1.641,6.3711,29.58,-17.82,32.2,-28.59,283.59,44.08,-74.86,2,1006.07,40.869,30.453472,-84.318726,90.83,NaN,,0,48.412903,,0 / 17,19305,2018-04-26 00:57:25:576,,,
8.3864,-14.6901,2.1629,1.7267,-9.5928,1.1103,-10.0921,1.6349,-0.5174,1.3397,-2.4566,4.353,29.58,-12.67,35.81,-27.19,268.71,64.02,-78.46,0,1006.08,40.869,30.453472,-84.318726,90.83,NaN,,0,48.412903,,0 / 17,19404,2018-04-26 00:57:25:675,,,
11.2024,-11.2937,2.1173,2.4204,-8.8808,3.3926,-7.1815,1.1339,0.326,2.0606,1.1362,-2.3622,28.524,-9.74,32.49,-30.28,197.68,75.84,-31.28,0,1006.09,41.285,30.453472,-84.318726,90.83,NaN,,0,48.412903,,0 / 17,19505,2018-04-26 00:57:25:776,,,
9.8678,-9.0302,-3.3114,3.2876,-7.9874,4.6507,-7.2213,-0.8701,7.9186,1.373,2.9212,-3.0878,28.524,-8.78,21.96,-37.86,221.1,54.51,-35.26,2,1006.09,41.285,30.453472,-84.318726,90.83,NaN,,0,48.412903,,0 / 17,19605,2018-04-26 00:57:25:876,,,
9.3605,-7.1508,-1.7197,6.1947,-6.2242,4.3728,2.7139,1.8592,-3.0595,-1.7561,0.909,-3.8642,28.524,-9.17,21.54,-39.56,246.34,46.03,-45.11,2,1006.09,41.285,30.453472,-84.318726,90.83,NaN,,0,48.412903,,0 / 17,19705,2018-04-26 00:57:25:976,,,
3.1567,-4.413,2.1545,6.8964,-5.5279,4.2565,3.6782,-1.1533,2.2134,-0.1843,-0.1599,-1.7458,28.524,-13.64,23.01,-37.11,273.17,34.3,-58.32,0,1006.09,41.285,30.453472,-84.318726,90.83,NaN,,0,48.412903,,0 / 17,19805,2018-04-26 00:57:26:076,,,
7.3502,-4.6345,6.2314,7.6444,-5.285,3.1414,0.6844,-0.6418,-0.7816,-1.0835,-0.2946,-0.7664,28.524,-17.49,25.57,-34.46,284.52,32.6,-67.66,0,1006.1,49.122,30.453472,-84.318726,90.83,NaN,,0,48.412903,,0 / 17,19905,2018-04-26 00:57:26:176,,,
4.2513,-5.3172,4.2919,7.126,-6.1749,2.7068,3.8054,2.2717,-1.9453,-2.1463,1.2729,1.2569,28.524,-17.34,29.34,-30.95,283.72,39.01,-69.2,0,1006.11,49.122,30.453472,-84.318726,90.83,NaN,,0,48.412903,,0 / 17,20005,2018-04-26 00:57:26:276,,,
3.0074,-7.8648,5.1291,5.9998,-7.598,1.5838,-0.5647,2.6692,0.7305,-1.7506,-1.3786,2.8448,28.524,-12.4,35.19,-27.81,302.34,39.01,-69.2,0,1006.13,49.122,30.453472,-84.318726,90.83,NaN,,0,48.412903,,0 / 17,20106,2018-04-26 00:57:26:377,,,
6.9945,-8.8195,-0.2192,3.0727,-9.2218,1.3241,-2.2927,-1.0957,1.2041,-0.1263,0.0606,2.5195,4.226,-2.92,41.02,-24.75,293.76,61.89,-72.25,0,1006.13,56.123,30.453472,-84.318726,90.83,NaN,,0,48.412903,,0 / 17,20205,2018-04-26 00:57:26:476,,,
3.1722,-7.7684,2.1101,0,-9.7329,1.2275,-4.7852,-3.8321,0.8354,-0.4118,1.45,5.0717,4.226,18.19,37.58,-21.39,228.23,82.81,0,0,1006.13,56.123,30.453472,-84.318726,90.83,NaN,,0,48.412903,,0 / 17,20305,2018-04-26 00:57:26:576,,,
-1.4953,-19.2627,0.8603,-4.0515,-8.8127,1.4692,-3.2862,-1.0932,-2.3004,-0.0438,-0.9413,1.0645,4.226,29.6,27.85,-24.27,148.82,63.94,70.07,0,1006.13,56.123,30.453472,-84.318726,90.83,NaN,,0,48.412903,,0 / 17,20407,2018-04-26 00:57:26:678,,,
-1.9537,-8.4234,-2.6696,-1.1876,-9.7318,-0.3434,5.4135,0.9668,-4.2971,-2.421,-1.4946,-2.0058,4.226,29,31.47,-18.07,163.57,73.96,69.91,0,1006.13,65.26,30.453472,-84.318726,90.83,NaN,,0,48.412903,,0 / 17,20504,2018-04-26 00:57:26:775,,,
-8.5466,-13.2959,3.2328,-0.704,-9.7475,-0.8523,0.9244,-2.7295,-5.1071,-0.712,-0.1941,-0.8736,4.226,20.95,40.64,-12.13,88.74,83.53,140.44,0,1006.13,65.26,30.453472,-84.318726,90.83,NaN,,0,48.412903,,0 / 17,20604,2018-04-26 00:57:26:875,,,
-5.0454,-4.4539,0.0723,-0.6932,-9.7828,0.2269,3.7737,-4.0967,-0.0172,0.7674,-0.3186,0.7261,4.226,20.39,39.93,-14.5,158.73,85.74,71.87,0,1006.13,65.26,30.453472,-84.318726,90.83,NaN,,0,48.412903,,0 / 17,20704,2018-04-26 00:57:26:975,,,
-4.3483,-5.7313,0.2714,-1.7646,-9.6491,0.1316,-10.2955,6.3139,-0.962,-0.1038,0.3936,1.6332,4.226,23.09,38.54,-16.12,139.53,79.61,85.74,0,1006.14,65.26,30.453472,-84.318726,90.83,NaN,,0,48.412903,,0 / 17,20804,2018-04-26 00:57:27:075,,,
5.1275,-12.0305,-1.2903,-0.8011,-9.7768,0.093,4.1428,4.1422,-0.4942,-0.5183,-1.3515,0.2683,1.183,20.55,40.04,-15.47,165.9,85.08,66.66,0,1006.09,56.844,30.453472,-84.318726,90.83,NaN,,0,48.412903,,0 / 17,20905,2018-04-26 00:57:27:176,,,
-6.1711,-10.5785,0.4057,-1.8404,-9.62,0.5515,1.3834,-4.6873,0.3815,0.402,-1.6088,1.018,1.183,20.17,38.73,-19.59,142.77,80.99,74.35,0,1006.09,56.844,30.453472,-84.318726,90.83,NaN,,0,48.412903,,0 / 17,21004,2018-04-26 00:57:27:275,,,
-4.6336,-11.4815,0.287,-2.4973,-9.4734,-0.5038,-1.7867,-0.2069,-1.9486,-2.0386,-1.0261,1.064,1.183,23.83,37.84,-16.02,115.61,74.95,101.41,0,1006.08,56.844,30.453472,-84.318726,90.83,NaN,,0,48.412903,,0 / 17,21104,2018-04-26 00:57:27:375,,,
-0.8793,-9.2602,1.4084,-3.1283,-9.2978,0.0151,-1.2249,0.22,-2.6872,0.356,-0.595,0.4416,1.183,22.09,37.69,-17.33,110.37,72.86,97.93,0,1006.08,64.793,30.453472,-84.318726,90.83,NaN,,0,48.412903,,0 / 17,21205,2018-04-26 00:57:27:476,,,
-1.7615,-9.0748,2.1833,-3.3787,-9.2088,-0.1359,-1.1032,-0.2604,-0.701,-0.0125,0.5391,0.4548,1.183,23.08,37.04,-18.41,113.29,69.84,92.3,0,1006.08,64.793,30.453472,-84.318726,90.83,NaN,,0,48.412903,,0 / 17,21306,2018-04-26 00:57:27:577,,,
-3.3969,-9.7345,0.7631,-4.0317,-8.8222,1.4663,-1.9262,0.2685,0.1017,1.1356,-0.5833,0.7416,1.183,22.92,31.65,-23.79,131.11,64.07,70.01,0,1006.1,64.793,30.453472,-84.318726,90.83,NaN,,0,48.412903,,0 / 17,21406,2018-04-26 00:57:27:677,,,
-0.366,-9.8224,-1.2279,-4.2742,-8.6632,1.7078,-6.9446,3.5339,2.8083,0.3661,-0.0317,0.4462,1.183,24.41,29.51,-26.06,132.83,62.02,68.22,0,1006.12,52.92,30.453472,-84.318726,90.83,NaN,,0,48.412903,,0 / 17,21505,2018-04-26 00:57:27:776,,,
2.7102,-12.3327,-1.2987,-2.0338,-9.5731,-0.6743,-3.8701,2.3182,2.2626,-3.1443,-1.1802,-3.4025,1.183,23.26,34.67,-21.72,123.38,65.38,76.26,0,1006.12,52.92,30.453472,-84.318726,90.83,NaN,,0,48.412903,,0 / 17,21606,2018-04-26 00:57:27:877,,,
-6.9196,-15.209,8.7886,-0.413,-9.7464,-1.0363,8.5839,-1.1968,-5.2184,2.0206,-6.1887,-1.2234,1.183,9.37,45.7,-11.81,28.98,75.91,167.27,0,1006.11,52.92,30.453472,-84.318726,90.83,NaN,,0,48.412903,,0 / 17,21705,2018-04-26 00:57:27:976,,,
-1.9442,-7.4277,10.1488,-0.0442,-9.8092,0.1165,3.1556,0.7074,13.3839,1.7688,0.3648,-0.6611,1.183,-0.22,40.92,-23.07,158.76,89.27,20.77,0,1006.11,66.5,30.453472,-84.318726,90.83,NaN,,0,48.412903,,0 / 17,21805,2018-04-26 00:57:28:076,,,
-4.4951,-9.0194,3.3467,-0.9366,-9.7652,-0.0145,1.2521,-0.0683,-1.416,-1.2309,-3.8172,1.2885,1.183,-3.49,40.26,-23.29,151.57,86.28,17.89,0,1006.17,66.5,30.453472,-84.318726,90.83,NaN,,0,48.412903,,17-Sep,21905,2018-04-26 00:57:28:176,,,
-2.3512,-9.7189,1.472,-1.7515,-9.652,0.089,-2.1287,1.9406,0.3834,-0.2703,-3.4947,1.331,1.183,-6.6,42.44,-18.04,53.65,79.7,87.09,0,1006.14,66.5,30.453472,-84.318726,90.83,NaN,,0,48.412903,,17-Sep,22005,2018-04-26 00:57:28:276,,,
-3.114,-6.8715,1.526,-2.7514,-9.3683,-0.9491,0.8615,-0.4893,-1.4902,-1.3948,0.3068,0.6312,1.183,-4.1,44.48,-11.57,26.2,72.74,109.03,0,1006.12,57.089,30.453472,-84.318726,90.83,NaN,,0,48.412903,,17-Sep,22105,2018-04-26 00:57:28:376,,,
-6.1664,-13.8377,-2.3686,-3.0908,-9.2882,-0.6425,-1.699,-3.05,-1.8805,-0.5385,-2.3448,0.5817,1.183,-5.79,46.67,-8.64,18.7,71.23,101.74,0,1006.12,57.089,30.453472,-84.318726,90.83,NaN,,0,48.412903,,17-Sep,22204,2018-04-26 00:57:28:475,,,
-3.3062,-11.6994,-0.0345,-3.4009,-9.1621,-0.8526,-2.1349,-0.0334,-2.5735,-0.8602,-1.5831,0.4294,1.183,-6.02,46.64,-5.99,10.47,69.06,104.07,0,1006.12,57.089,30.453472,-84.318726,90.83,NaN,,0,48.412903,,17-Sep,22305,2018-04-26 00:57:28:576,,,
-1.438,-9.1109,1.7587,-3.5646,-9.124,0.5306,0.2852,1.8254,1.7454,0.4951,-4.905,0.222,1.183,-5.04,47.31,-6.36,12.01,68.97,102.17,0,1006.12,57.089,30.453472,-84.318726,90.83,NaN,,0,48.412903,,17-Sep,22405,2018-04-26 00:57:28:676,,,
-3.416,-9.6912,5.1567,-3.352,-9.1672,0.981,-0.4295,0.1502,-2.3754,-1.3585,-4.7643,0.2036,1.183,-6.5,47.16,2.8,357.8,69.14,73.69,0,1006.13,60.234,30.453472,-84.318726,90.83,NaN,,0,48.412903,,17-Sep,22505,2018-04-26 00:57:28:776,,,
-2.2629,-9.454,1.3005,-3.3292,-9.2265,-0.1552,-0.4291,0.943,-3.7557,-1.3787,-1.9288,-0.0958,1.183,-5.76,46.83,4.84,348.47,69.73,85.72,0,1006.13,60.234,30.453472,-84.318726,90.83,NaN,,0,48.412903,,17-Sep,22606,2018-04-26 00:57:28:877,,,
-3.0495,-10.4665,2.9377,-3.2267,-9.2563,-0.381,0.2844,-0.1919,-1.7407,-0.9423,-1.6343,-0.2012,1.183,-5.11,45.41,13.24,323.72,70.58,96.15,0,1006.13,60.234,30.453472,-84.318726,90.83,NaN,,0,48.412903,,17-Sep,22705,2018-04-26 00:57:28:976,,,
-3.0221,-7.9045,0.4453,-3.2454,-9.241,-0.5551,0.4406,0.8515,3.2984,-1.1119,-1.9497,-0.0585,1.183,-1.98,43.49,18.71,304.84,70.39,99.71,0,1006.13,50.665,30.453472,-84.318726,90.83,NaN,,0,48.412903,,17-Sep,22806,2018-04-26 00:57:29:077,,,
-4.0761,-9.7875,-2.4154,-3.748,-8.8534,-1.9509,1.6466,1.526,-2.0246,-1.6144,-0.4667,0.5722,1.183,3.16,39.24,26.36,279.33,64.49,117.5,0,1006.12,50.665,30.453472,-84.318726,90.83,NaN,,0,48.412903,,0 / 17,22904,2018-04-26 00:57:29:175,,,
-2.9075,-4.8404,-3.2238,-3.4126,-8.8862,-2.3717,4.1032,-4.9676,-3.4768,-0.6918,-0.3196,-0.8518,1.183,3.15,37.26,28.82,265.99,64.94,124.8,0,1006.12,50.665,30.453472,-84.318726,90.83,NaN,,0,48.412903,,0 / 17,23005,2018-04-26 00:57:29:276,,,
-7.1369,-5.9854,1.2477,-3.723,-8.9824,-1.3009,0.9296,-0.6852,-0.5726,0.428,-0.4919,1.1552,1.183,3.89,38.31,27.78,264.62,69.14,118.25,0,1006.12,59.896,30.453472,-84.318726,90.83,NaN,,0,48.412903,,0 / 17,23106,2018-04-26 00:57:29:377,,,
-3.3718,-14.7912,-7.0296,-3.9653,-8.8616,-1.4089,-3.6588,-1.4058,-1.0122,-0.6169,-0.6957,0.1402,1.183,7.82,38.02,27.69,272.47,64.6,109.56,0,1006.1,59.896,30.453472,-84.318726,90.83,NaN,,0,48.412903,,0 / 17,23205,2018-04-26 00:57:29:476,,,
5.7984,-1.7811,-2.3854,-3.0771,-8.582,-3.6217,3.3503,1.7767,-5.2785,-1.3253,0.4521,0.7971,1.183,-1.39,34.83,32.25,258.3,66.15,132.68,0,1006.1,59.896,30.453472,-84.318726,90.83,NaN,,0,48.412903,,0 / 17,23306,2018-04-26 00:57:29:577,,,
-5.6841,-9.5383,-4.0382,-4.0066,-8.421,-3.0447,0.6538,0.5535,3.3222,0.9013,-1.8413,-0.9031,1.183,4.97,30.27,35.57,253.12,55.04,135.17,0,1006.11,59.802,30.453472,-84.318726,90.83,NaN,,0,48.412903,,0 / 17,23405,2018-04-26 00:57:29:676,,,Out
0.6642,-9.395,-4.4832,-2.175,-9.018,-3.1907,1.3144,2.9143,4.1146,0.3819,2.0197,-2.7115,1.183,0.42,34.15,33.8,236.99,66.82,145.72,0,1006.1,59.802,30.453472,-84.318726,90.83,NaN,,0,48.412903,,0 / 17,23505,2018-04-26 00:57:29:776,,,Out
0.7716,-11.1046,-0.3931,0.5231,-9.3393,-2.9564,2.6332,-1.168,-0.4644,0.8847,0.13,-1.7907,1.183,-11.51,31.84,33.38,194.7,72.18,-169.97,0,1006.1,59.802,30.453472,-84.318726,90.83,NaN,,0,48.412903,,0 / 17,23605,2018-04-26 00:57:29:876,,,Out
-2.8013,-7.335,-2.1647,0.7562,-9.5802,-1.9706,-0.2132,-3.0587,3.2805,1.6295,0.5819,-0.2198,1.183,-13.32,34.53,30.19,183.26,77.58,-159.01,0,1006.11,59.802,30.453472,-84.318726,90.83,NaN,,0,48.412903,,0 / 17,23705,2018-04-26 00:57:29:976,,,Out
2.4213,-8.6522,-4.0526,0.1237,-9.8046,-0.3007,-5.0203,-0.2292,2.6745,0.6155,-0.8046,0.5379,1.183,-13.69,40.34,21.59,190.65,88.1,-157.64,0,1006.11,60.367,30.453472,-84.318726,90.83,NaN,,0,48.412903,,0 / 17,23805,2018-04-26 00:57:30:076,,,Out
7.2643,-12.8492,0.0939,2.1048,-9.5447,0.8393,-1.3523,2.7693,4.6311,1.3965,-0.5294,-1.6001,1.183,-17.29,41.51,16.81,96.27,82.96,-63.7,0,1006.1,60.367,30.453472,-84.318726,90.83,NaN,,0,48.412903,,0 / 17,23905,2018-04-26 00:57:30:176,,,Out
3.1662,-11.9595,3.6322,2.989,-9.3332,0.4391,5.6869,0.2253,-1.5456,-0.1071,-1.7067,-1.4079,1.183,-19.27,38.88,18.24,94.03,76.64,-68.26,0,1006.09,60.367,30.453472,-84.318726,90.83,NaN,,0,48.412903,,0 / 17,24005,2018-04-26 00:57:30:276,,,Out
-2.2283,-9.7694,2.2936,3.5794,-8.9997,1.5586,0.8706,1.7322,-0.9921,2.7242,-2.0043,-0.3132,1.183,-19.49,37.84,20.05,94.92,69.88,-81.86,0,1006.09,59.355,30.453472,-84.318726,90.83,NaN,,0,48.412903,,0 / 17,24109,2018-04-26 00:57:30:380,,,Out
5.4665,-7.5505,0.1946,3.7549,-8.5397,3.0348,-2.3408,-1.8664,2.0977,2.6526,0.4223,-0.3403,1.183,-18.2,42.81,10.96,52.96,60.52,-51.05,0,1006.09,59.355,30.453472,-84.318726,90.83,NaN,,0,48.412903,,0 / 17,24205,2018-04-26 00:57:30:476,,,Out
7.5114,-4.4804,3.3959,2.658,-7.6816,5.4922,-8.5131,-5.6701,5.1174,0.2161,2.1552,-0.6166,1.183,-18.18,42.65,-3.08,38.85,51.54,-25.82,0,1006.09,59.355,30.453472,-84.318726,90.83,NaN,,0,48.412903,,0 / 17,24306,2018-04-26 00:57:30:577,,,Out
9.3748,-3.9844,3.8781,3.712,-7.6729,4.8563,1.02,1.5148,-4.0787,-3.1672,2.4968,-2.8036,1.183,-24.25,41.52,0.2,58.39,55.61,-37.04,2,1006.09,52.983,30.453472,-84.318726,90.83,NaN,,0,48.412903,,0 / 17,24405,2018-04-26 00:57:30:676,,,Out
2.5753,-9.342,8.8966,4.0208,-6.9909,5.5854,-2.5468,2.0523,-2.4833,0.3252,2.2757,-2.3498,2.113,-34.47,30.53,-8,82.63,45.45,-35.75,2,1006.1,52.983,30.453472,-84.318726,90.83,NaN,,0,48.412903,,0 / 17,24507,2018-04-26 00:57:30:778,,,Out
5.642,-11.3466,10.0372,4.3815,-3.5813,8.0133,-0.803,5.6162,-3.4221,2.5237,2.2497,-3.4545,2.113,-37.38,16.68,-20.28,110.65,35.21,-33.42,2,1006.11,52.983,30.453472,-84.318726,90.83,NaN,,0,48.412903,,0 / 17,24605,2018-04-26 00:57:30:876,,,Out
1.7421,-9.5515,9.5443,3.6723,-1.3738,8.9924,0.1568,4.579,-0.913,3.0361,1.8855,-2.0964,2.113,-36.94,3.69,-25.48,117.74,21.41,-28.67,2,1006.1,52.983,30.453472,-84.318726,90.83,NaN,,0,48.412903,,0 / 17,24705,2018-04-26 00:57:30:976,,,Out
3.5816,-4.2252,9.7841,2.088,2.1924,9.3311,-0.7944,3.9163,1.6105,2.6145,1.4228,-1.0382,2.113,-30.65,-13.84,-30.78,121.19,-2.75,-17.84,2,1006.1,46.479,30.453472,-84.318726,90.83,NaN,,0,48.412903,,0 / 17,24805,2018-04-26 00:57:31:076,,,Out
2.5228,-0.895,8.328,1.4821,3.4576,9.0601,-2.0449,0.9554,3.0819,2.0659,0.6413,-0.9845,2.113,-24.52,-26.34,-28.67,122.68,-20.64,-9.29,2,1006.1,46.479,30.453472,-84.318726,90.83,NaN,,0,48.412903,,0 / 17,24905,2018-04-26 00:57:31:176,,,Out
2.031,2.9637,7.3373,1.7843,5.5868,7.8638,0.6079,2.3948,1.8383,1.1507,-1.0824,-1.8153,2.113,-21.33,-36.28,-20.38,134.61,-34.72,-12.78,2,1006.1,46.479,30.453472,-84.318726,90.83,NaN,,0,48.412903,,0 / 17,25005,2018-04-26 00:57:31:276,,,Out
1.5213,5.4668,5.3498,1.3805,6.6881,7.0427,0.8732,0.671,0.2645,0.6297,-0.171,-0.8752,2.113,-19.01,-39.87,-17,139.58,-39.91,-12.76,2,1006.08,35.009,30.453472,-84.318726,90.83,NaN,,0,48.412903,,0 / 17,25105,2018-04-26 00:57:31:376,,,Out
0.2428,6.0291,6.62,1.0516,6.9974,6.7946,1.5518,0.084,-1.048,0.6204,0.2095,-0.5611,9.508,-15.72,-42.85,-13.03,144.29,-45.5,-8.8,2,1006.08,35.009,30.453472,-84.318726,90.83,NaN,,0,48.412903,,0 / 17,25204,2018-04-26 00:57:31:475,,,Out
-1.3282,7.2932,5.5609,0.9282,7.0844,6.7221,0.9956,1.2128,-1.9224,-0.3137,0.2647,0.1895,9.508,-15.25,-43.04,-12.16,146.11,-46.23,-7.86,2,1006.08,35.009,30.453472,-84.318726,90.83,NaN,,0,48.412903,,0 / 17,25307,2018-04-26 00:57:31:578,,,Out
-1.2494,5.1778,8.911,1.0191,7.1891,6.5966,1.669,0.8118,0.8568,0.345,0.1557,0.4507,9.508,-15.91,-43.16,-12.23,143.33,-47.12,-8.78,2,1006.07,47.518,30.453472,-84.318726,90.83,NaN,,0,48.412903,,0 / 17,25404,2018-04-26 00:57:31:675,,,Out
0.4541,6.4408,6.0959,1.2796,7.0598,6.6902,0.1998,0.9549,0.0366,-0.3557,0.0692,0.2976,9.508,-17.76,-42.15,-12.29,138,-47.51,-10.22,2,1006.07,47.518,30.453472,-84.318726,90.83,NaN,,0,48.412903,,0 / 17,25505,2018-04-26 00:57:31:776,,,Out
0.5185,5.7329,7.2761,1.7285,6.9061,6.7494,0.6221,0.3659,1.892,-0.0109,0.0215,0.4487,9.508,-19.82,-40.19,-13.1,133.45,-45.57,-12.26,2,1006.07,47.518,30.453472,-84.318726,90.83,NaN,,0,48.412903,,0 / 17,25605,2018-04-26 00:57:31:876,,,Out
1.5571,6.7598,5.4014,2.2227,6.7228,6.7897,0.2923,0.0718,3.1939,-0.3149,-0.6792,0.5652,9.508,-23.03,-38.82,-12.56,130.16,-43.26,-18.13,2,1006.06,52.302,30.453472,-84.318726,90.83,NaN,,0,48.412903,,0 / 17,25706,2018-04-26 00:57:31:977,,,Out
2.0393,6.0868,4.6577,3.9348,4.9528,7.4982,2.4963,5.0613,2.8556,-1.3782,-0.8691,1.8568,9.508,-24.6,-37.09,-13.21,131.41,-37.82,-22.39,2,1006.06,52.302,30.453472,-84.318726,90.83,NaN,,0,48.412903,,0 / 17,25805,2018-04-26 00:57:32:076,,,Out
3.6007,-2.7202,3.8589,5.8341,3.6378,6.9976,0.913,6.4211,4.9045,-0.8114,-2.6848,2.8016,10.564,-35.31,-27.04,-13.57,125.49,-21.77,-39.82,2,1006.06,52.302,30.453472,-84.318726,90.83,NaN,,0,48.412903,,0 / 17,25905,2018-04-26 00:57:32:176,,,Out
5.063,-4.6273,2.0813,9.3255,-1.1113,2.8347,0.6767,7.7989,-1.2959,-1.5,-3.19,4.7075,10.564,-45.59,-9.22,6.83,124.3,6.5,-73.09,2,1006.05,43.662,30.453472,-84.318726,90.83,NaN,,0,48.412903,,0 / 17,26004,2018-04-26 00:57:32:275,,,Out
11.1212,-10.8795,4.6673,7.03,-6.8418,-0.0705,-7.6839,4.3942,-2.9222,-0.6881,-2.5468,5.3906,10.564,-39.21,15.5,19.58,95.32,26.18,-82,2,1006.06,43.662,30.453472,-84.318726,90.83,NaN,,0,48.412903,,0 / 17,26105,2018-04-26 00:57:32:376,,,Out
14.3753,-8.5438,1.033,5.6619,-7.995,-0.509,-7.5364,-0.0442,-0.212,0.1024,-1.2451,2.7176,10.564,-31.74,24.83,24.17,100.92,44.22,-90.57,0,1006.06,43.662,30.453472,-84.318726,90.83,NaN,,0,48.412903,,0 / 17,26205,2018-04-26 00:57:32:476,,,Out
12.7709,-8.2368,-0.1113,4.8362,-8.4938,0.8385,-5.542,0.585,2.162,1.7027,-0.1023,0.2942,10.564,-23.57,32.82,23.94,99.31,59.41,-90.16,0,1006.06,43.662,30.453472,-84.318726,90.83,NaN,,0,48.412903,,0 / 17,26305,2018-04-26 00:57:32:576,,,Out
15.2587,-7.6252,-2.0291,5.3945,-8.0024,1.7599,-4.2205,-1.2516,7.4943,1.3942,0.6783,-1.1846,10.564,-25.65,35.97,17.96,78.3,54.66,-71.93,2,1006.06,52.971,30.453472,-84.318726,90.83,NaN,,0,48.412903,,0 / 17,26404,2018-04-26 00:57:32:675,,,Out
3.516,-8.9483,0.9011,6.1931,-7.4178,1.6906,4.6577,2.5704,-0.4431,-1.4398,0.4974,-1.135,10.564,-30.8,32.89,15.39,85.17,51.47,-69,2,1006.06,52.971,30.453472,-84.318726,90.83,NaN,,0,48.412903,,0 / 17,26505,2018-04-26 00:57:32:776,,,
7.6236,-7.9611,4.5138,6.9434,-6.6486,1.9547,-0.7396,1.2798,-2.4411,-0.5714,1.483,-2.2418,6.339,-35.58,25.36,14.87,95.54,42.67,-74.28,0,1006.06,52.971,30.453472,-84.318726,90.83,NaN,,0,48.412903,,0 / 17,26605,2018-04-26 00:57:32:876,,,
3.7822,-5.0993,3.607,7.5814,-5.7376,2.4165,5.5834,-1.1451,-0.6188,0.0649,0.132,-0.3338,6.339,-40.64,18.58,12.48,102.52,35.79,-72.32,0,1006.07,51.739,30.453472,-84.318726,90.83,NaN,,0,48.412903,,0 / 17,26707,2018-04-26 00:57:32:978,,,
1.9259,-4.649,3.1356,7.0029,-6.3766,2.5561,3.0193,-1.7128,-0.2858,-0.6239,1.207,0.7688,6.339,-40.4,18.69,11.47,107.4,40.54,-69.95,0,1006.07,51.739,30.453472,-84.318726,90.83,NaN,,0,48.412903,,0 / 17,26805,2018-04-26 00:57:33:076,,,
4.7789,-3.8158,2.5227,6.2208,-7.0505,2.7978,-6.3212,-0.3323,0.141,-1.0994,1.7332,1.1818,6.339,-39.98,19.97,9.46,108.04,40.54,-69.95,0,1006.08,51.739,30.453472,-84.318726,90.83,NaN,,0,48.412903,,0 / 17,26906,2018-04-26 00:57:33:177,,,
14.1867,-7.9912,0.7511,5.576,-7.8469,1.8896,-0.8897,4.0627,2.9262,-1.4489,-1.5197,1.5179,6.339,-39.27,24.29,5.9,107.25,46.59,-63.83,0,1006.08,49.289,30.453472,-84.318726,90.83,NaN,,0,48.412903,,0 / 17,27005,2018-04-26 00:57:33:276,,,
10.4312,-8.8833,3.1944,5.3587,-8.207,0.4067,-2.5506,0.7974,-1.6742,-1.8828,-1.3318,0.5543,6.339,-33.82,26.7,18.46,121.21,56.78,-85.66,0,1006.09,49.289,30.453472,-84.318726,90.83,NaN,,0,48.412903,,0 / 17,27105,2018-04-26 00:57:33:376,,,
5.2027,-9.041,3.3239,5.9178,-7.8128,0.4202,-3.0879,5.9381,3.3052,1.4131,-0.371,-0.0238,6.339,-35.37,22.98,19.21,128.29,53.19,-91.02,0,1006.11,49.289,30.453472,-84.318726,90.83,NaN,,0,48.412903,,0 / 17,27205,2018-04-26 00:57:33:476,,,
7.6403,-7.0063,3.7474,6.4619,-7.3447,0.7316,1.5385,-1.5698,-5.3225,-0.6546,-0.1936,-0.2466,6.339,-35.08,24.51,18.49,122.95,52.11,-89.07,0,1006.12,45.894,30.453472,-84.318726,90.83,NaN,,0,48.412903,,0 / 17,27305,2018-04-26 00:57:33:576,,,
1.6824,-5.6422,-0.8021,6.1199,-7.5609,1.2713,6.8174,-2.6979,0.031,0.2603,0.8261,0.6507,0.946,-39.92,20.26,10.85,129.74,50.42,-78.27,0,1006.12,45.894,30.453472,-84.318726,90.83,NaN,,0,48.412903,,0 / 17,27405,2018-04-26 00:57:33:676,,,
2.6004,-5.4267,-0.0585,2.3289,-9.4038,1.5428,-13.1445,10.8938,-1.4145,-0.1501,0.1536,3.9666,0.946,-30.75,33.46,10.71,109.97,73.45,-56.48,0,1006.1,45.894,30.453472,-84.318726,90.83,NaN,,0,48.412903,,0 / 17,27505,2018-04-26 00:57:33:776,,,
25.8805,-29.1546,7.9502,2.8789,-9.0004,2.6346,2.954,0.3173,2.4867,1.3921,1.929,-1.3276,0.946,-29.46,35.35,6.34,94.74,66.56,-47.54,0,1006.1,45.894,30.453472,-84.318726,90.83,NaN,,0,48.412903,,0 / 17,27605,2018-04-26 00:57:33:876,,,
-0.9653,-12.0317,2.9605,2.6429,-9.3587,1.2907,4.3528,-1.0909,-0.879,-0.8033,-0.8554,0.1405,0.946,-28.97,34.72,9.7,99.59,70.32,-52.88,0,1006.09,64.483,30.453472,-84.318726,90.83,NaN,,0,48.412903,,0 / 17,27705,2018-04-26 00:57:33:976,,,
-0.6454,-9.8116,0.6048,2.4759,-9.439,1.006,1.7795,0.4617,-3.8466,-0.3286,-0.9359,0.3308,0.946,-26.91,35.68,13.9,111.67,74.19,-67.89,0,1006.09,64.483,30.453472,-84.318726,90.83,NaN,,0,48.412903,,0 / 17,27806,2018-04-26 00:57:34:077,,,
0.5316,-9.9886,4.6553,1.7411,-9.6212,0.7984,-0.8047,-0.3126,-3.3511,0.1472,0.2567,0.6486,0.946,-24.85,36.24,14.76,117.4,76.94,-73.63,0,1006.09,64.483,30.453472,-84.318726,90.83,NaN,,0,48.412903,,0 / 17,27905,2018-04-26 00:57:34:176,,,
2.2912,-10.1403,3.3528,0.7641,-9.6598,1.53,-2.0899,-0.0197,0.1038,0.6232,0.6254,0.8381,0.946,-24.12,38.49,11.97,99.06,79.94,-50.12,0,1006.09,51.251,30.453472,-84.318726,90.83,NaN,,0,48.412903,,0 / 17,28005,2018-04-26 00:57:34:276,,,
2.6529,-9.2566,1.2705,0.1722,-9.6082,1.9719,-2.6437,-0.1415,0.8341,0.7191,0.3718,0.9615,0.946,-19.83,41.45,8.04,55.12,78.36,-4.99,0,1006.1,51.251,30.453472,-84.318726,90.83,NaN,,0,48.412903,,0 / 17,28105,2018-04-26 00:57:34:376,,,
3.7798,-8.0935,1.1626,-0.0686,-9.4618,2.5896,-7.4164,0.7732,0.506,0.3594,-1.0841,-0.3021,0.946,-16,43.45,5.4,43.72,74.69,1.52,0,1006.1,51.251,30.453472,-84.318726,90.83,NaN,,0,48.412903,,0 / 17,28204,2018-04-26 00:57:34:475,,,
10.2605,-8.9014,1.7503,1.3907,-9.458,2.202,-2.2723,2.5083,-0.5703,-0.86,-0.1547,-2.4298,0.946,-19.57,42.63,7.2,71.71,74.6,-32.27,0,1006.1,45.783,30.453472,-84.318726,90.83,NaN,,0,48.412903,,0 / 17,28305,2018-04-26 00:57:34:576,,,
3.5864,-15.0151,2.3572,5.3026,-8.2192,0.7507,5.9533,10.7066,-3.2975,-0.2487,0.5959,-2.7692,0.946,-35.49,28.85,10.06,135.48,67.24,-76.72,0,1006.1,45.783,30.453472,-84.318726,90.83,NaN,,0,48.412903,,0 / 17,28407,2018-04-26 00:57:34:678,,,
-1.9537,-15.351,2.7806,5.4469,-8.0733,1.1787,0.9132,1.4842,3.6797,1.2601,-1.1859,0.0248,0.946,-37.97,25.63,11.21,130.25,56.05,-79.77,0,1006.1,45.783,30.453472,-84.318726,90.83,NaN,,0,48.412903,,0 / 17,28504,2018-04-26 00:57:34:775,,,
-1.0787,-6.1985,0.3841,5.1232,-8.2871,1.1456,3.218,-0.1456,-0.3128,1.0155,-1.7194,0.8977,0.946,-34.12,28.61,14.67,113.84,57.65,-77.4,0,1006.12,67.837,30.453472,-84.318726,90.83,NaN,,0,48.412903,,0 / 17,28605,2018-04-26 00:57:34:876,,,
1.5917,-8.3307,1.5428,3.8207,-9.0322,0.2413,-8.4841,0.547,-1.4664,-0.6577,-1.4663,0.4789,0.946,-28.39,34.18,17.41,105.32,64.4,-76.57,0,1006.14,67.837,30.453472,-84.318726,90.83,NaN,,0,48.412903,,0 / 17,28704,2018-04-26 00:57:34:975,,,
11.3791,-6.9209,6.0467,3.8704,-9.003,0.4506,0.4518,-1.2446,-2.6631,1.2323,-1.4761,0.0854,0.946,-23.1,35.12,22.12,100.92,66.6,-83.36,0,1006.14,67.837,30.453472,-84.318726,90.83,NaN,,0,48.412903,,0 / 17,28805,2018-04-26 00:57:35:076,,,
0.8707,-17.7012,1.5032,3.1431,-9.2924,0.0937,2.6024,2.2748,-2.223,0.0849,-4.2851,0.5508,0.946,-17.34,36.52,22.77,98.68,71.3,-88.29,0,1006.13,67.837,30.453472,-84.318726,90.83,NaN,,0,48.412903,,0 / 17,28905,2018-04-26 00:57:35:176,,,
0.3084,-9.0121,0.6624,2.3669,-9.4672,-1.0026,-0.4272,0.2167,-3.3221,0.0321,-3.5045,0.8733,0.946,-11.54,38.8,25.32,102.26,74.16,-99.99,0,1006.13,56.301,30.453472,-84.318726,90.83,NaN,,0,48.412903,,0 / 17,29005,2018-04-26 00:57:35:276,,,
2.9131,-5.1462,6.662,3.4263,-9.1692,-0.6495,0.0491,0.0809,-5.1528,0.2199,0.8801,-1.7906,0.946,-2.42,38.78,27.58,75.23,69.18,-100.73,0,1006.11,56.301,30.453472,-84.318726,90.83,NaN,,0,48.412903,,0 / 17,29105,2018-04-26 00:57:35:376,,,
6.7211,-7.7805,1.1134,4.1107,-8.9069,0.0696,-1.0722,1.4368,-0.2242,1.8985,-3.9352,-0.9037,0.946,-6.23,41.37,24.05,69.89,68.53,-91.83,0,1006.11,56.301,30.453472,-84.318726,90.83,NaN,,0,48.412903,,0 / 17,29206,2018-04-26 00:57:35:477,,,
3.8168,-7.6782,0.9527,4.3408,-8.7706,-0.6851,-1.1224,1.9046,-2.5095,0.0856,-3.1417,-0.4879,0.946,-0.59,43.37,21.95,54.63,63.39,-98.97,0,1006.1,55.807,30.453472,-84.318726,90.83,NaN,,0,48.412903,,0 / 17,29305,2018-04-26 00:57:35:576,,,
5.063,-9.5034,2.0741,4.4232,-8.6226,-1.5238,1.0543,1.2252,-1.8383,0.9,-2.082,-0.5054,0.946,1.57,43.33,20.97,51.83,61.99,-107.85,0,1006.1,55.807,30.453472,-84.318726,90.83,NaN,,0,48.412903,,0 / 17,29405,2018-04-26 00:57:35:676,,,
4.4089,-10.4726,-1.1116,4.3997,-8.661,-1.3656,0.2674,1.0307,-0.6954,1.1911,-1.8681,-0.2191,0.946,4.06,45.65,14.74,36.39,61.99,-107.24,0,1006.1,55.807,30.453472,-84.318726,90.83,NaN,,0,48.412903,,0 / 17,29505,2018-04-26 00:57:35:776,,,
2.7532,-10.4316,0.0603,3.4233,-9.0471,-1.6334,-0.064,0.4743,0.6766,0.0948,-2.3629,0.8097,0.946,9.57,45.96,9.03,28.88,67.25,-115.51,0,1006.1,53.009,30.453472,-84.318726,90.83,NaN,,0,48.412903,,0 / 17,29606,2018-04-26 00:57:35:877,,,
3.4288,-9.5539,-2.1983,2.7807,-9.3427,-1.1037,-1.1811,-2.4337,4.901,1.173,-1.335,0.1563,0.946,12.23,47.23,0.53,12.28,72.24,-111.65,0,1006.1,53.009,30.453472,-84.318726,90.83,NaN,,0,48.412903,,0 / 17,29705,2018-04-26 00:57:35:976,,,
4.1475,-9.2758,-1.9908,2.9168,-9.305,-1.07,-1.3616,-0.1543,2.4503,0.3152,-0.3951,-0.296,0.946,11.3,47.2,-1.12,6.5,71.54,-110.15,0,1006.11,53.009,30.453472,-84.318726,90.83,NaN,,0,48.412903,,0 / 17,29805,2018-04-26 00:57:36:076,,,
4.04,-9.5335,-1.565,3.7058,-9.0785,-0.2903,-1.3907,-0.0895,0.9204,0.9748,-2.3236,-0.8325,0.946,8.66,46.83,-5.31,350.86,70.41,-96.35,0,1006.11,53.009,30.453472,-84.318726,90.83,NaN,,0,48.412903,,0 / 17,29906,2018-04-26 00:57:36:177,,,
4.2967,-10.4966,0.564,4.31,-8.7929,-0.5872,2.3368,-0.5419,-1.0477,0.5239,-2.4345,-1.1439,0.946,1.54,46.38,-10.14,337.6,63.68,-97.76,0,1006.09,57.859,30.453472,-84.318726,90.83,NaN,,0,48.412903,,0 / 17,30005,2018-04-26 00:57:36:276,,,
1.9785,-8.238,0.3889,4.0601,-8.9164,-0.4992,0.9515,0.4439,-0.6841,0.9373,-0.5327,0.3109,0.946,-0.09,46.18,-12.58,330.76,63.51,-101.19,0,1006.1,57.859,30.453472,-84.318726,90.83,NaN,,0,48.412903,,0 / 17,30105,2018-04-26 00:57:36:376,,,
2.7794,-10.0259,-0.9317,3.7608,-9.0358,0.6692,-0.0926,0.3691,1.0284,0.8451,0.3651,0.7539,0.946,0.25,43.77,-16.87,316.9,65.01,-88.41,0,1006.1,57.859,30.453472,-84.318726,90.83,NaN,,0,48.412903,,0 / 17,30204,2018-04-26 00:57:36:475,,,
4.3707,-9.1663,-1.5662,3.9177,-8.9694,0.6612,-1.8037,-0.582,-2.431,0.3932,-1.0165,-0.2892,0.946,1.92,43.52,-19.29,311.27,66.11,-80.42,0,1006.11,56.011,30.453472,-84.318726,90.83,NaN,,0,48.412903,,0 / 17,30306,2018-04-26 00:57:36:577,,,
2.7615,-8.4872,2.7938,3.5381,-9.0403,1.4109,0.5058,0.0203,1.68,-0.2914,2.2942,0.4259,0.946,3.09,43.12,-20.05,302.28,67.15,-68.26,0,1006.11,56.011,30.453472,-84.318726,90.83,NaN,,0,48.412903,,0 / 17,30405,2018-04-26 00:57:36:676,,,
3.017,-9.082,-0.1916,3.2553,-9.083,1.7717,1.2477,0.0294,1.1302,0.5243,0.3233,0.3805,0.946,5.98,41.93,-18.95,302.25,67.8,-61.44,0,1006.11,56.011,30.453472,-84.318726,90.83,NaN,,0,48.412903,,0 / 17,30505,2018-04-26 00:57:36:776,,,
3.5888,-10.4256,-0.0273,3.2069,-9.1981,1.1605,-3.6575,0.9329,2.1677,-0.912,-1.275,-0.2716,0.946,7.24,41.78,-19.95,304.19,69.66,-70.11,0,1006.08,51.732,30.453472,-84.318726,90.83,NaN,,0,48.412903,,0 / 17,30606,2018-04-26 00:57:36:877,,,
6.7164,-10.4437,0.2186,4.7971,-8.5556,0.16,-1.4535,-0.658,-1.7685,-0.9415,-1.7214,-1.399,0.946,-1.7,43.93,-17.76,311.35,65.46,-87.53,0,1006.06,51.732,30.453472,-84.318726,90.83,NaN,,0,48.412903,,0 / 17,30705,2018-04-26 00:57:36:976,,,
5.8975,-8.0899,1.9914,5.5776,-8.0346,0.7554,4.5363,-0.6071,-2.027,1.8681,-1.2064,-1.5198,0.946,-6,42.49,-20.17,306.68,60.71,-88.09,0,1006.06,51.732,30.453472,-84.318726,90.83,NaN,,0,48.412903,,0 / 17,30805,2018-04-26 00:57:37:076,,,
1.5809,-6.6933,7.0446,5.9653,-7.6262,1.5787,0.0849,-1.4971,-3.3249,1.1346,0.6305,0.4036,0.946,-17.35,34.03,-26.04,285.05,50.34,-83.49,0,1006.07,62.398,30.453472,-84.318726,90.83,NaN,,0,48.412903,,17-Jul,30905,2018-04-26 00:57:37:176,,,
5.7888,-4.8633,3.703,5.7223,-7.7189,1.9772,0.3077,-1.0823,0.4256,-0.1708,1.2317,0.2483,0.946,-13.87,32.84,-29.48,276.25,51.89,-70.94,0,1006.07,62.398,30.453472,-84.318726,90.83,NaN,,0,48.412903,,17-Jul,31004,2018-04-26 00:57:37:275,,,
7.1091,-9.2096,1.3569,5.1629,-8.2027,1.5154,-2.3226,-0.3183,3.1939,-1.9666,1.7843,-0.0221,0.946,-7.01,38.58,-25.9,292.79,56.74,-73.64,0,1006.07,62.398,30.453472,-84.318726,90.83,NaN,,0,48.412903,,17-Jul,31105,2018-04-26 00:57:37:376,,,
6.0276,-8.0165,-1.0012,5.1054,-8.3229,0.9489,0.5752,-0.1866,-0.1242,-1.4102,0.7862,0.0583,0.946,-6.13,41.45,-21.93,302.91,58.04,-79.47,0,1006.07,35.033,30.453472,-84.318726,90.83,NaN,,0,48.412903,,17-Jul,31205,2018-04-26 00:57:37:476,,,
4.6882,-8.9628,1.5919,3.9708,-8.8179,1.6471,-1.7773,-1.0755,0.1781,0.5449,0.1856,1.088,0.946,0.28,42.46,-21.95,298.05,64.01,-67.47,0,1006.07,35.033,30.453472,-84.318726,90.83,NaN,,0,48.412903,,17-Jul,31305,2018-04-26 00:57:37:576,,,
5.8616,-8.1525,1.9746,3.2598,-8.9917,2.1816,-1.0423,-0.773,0.709,0.4705,0.1212,0.6582,0.946,3.86,40.68,-24.28,293.67,65.39,-62.22,0,1006.07,35.033,30.453472,-84.318726,90.83,NaN,,0,48.412903,,17-Jul,31405,2018-04-26 00:57:37:676,,,
5.7876,-11.9005,1.9854,2.6326,-9.1347,2.4212,-3.5941,-1.011,1.6061,0.2778,0.4771,1.0122,0.946,6.17,39.25,-25.29,287.1,66.43,-56.21,0,1006.08,35.033,30.453472,-84.318726,90.83,NaN,,0,48.412903,,17-Jul,31505,2018-04-26 00:57:37:776,,,
6.0335,-8.1489,1.0942,3.5239,-8.7755,2.6093,-4.1411,2.5406,-0.5701,-0.119,-1.3586,-1.0553,0.946,5.34,37.09,-28.62,266.23,66.44,-42.96,0,1006.08,36.883,30.453472,-84.318726,90.83,NaN,,0,48.412903,,17-Jul,31606,2018-04-26 00:57:37:877,,,
4.7133,-10.5424,0.4969,4.3367,-8.6539,1.5936,1.1344,1.8251,0.8783,-1.6848,-0.6656,-1.2997,0.946,-2.93,40.32,-25.63,289.87,61.9,-69.82,0,1006.08,36.883,30.453472,-84.318726,90.83,NaN,,0,48.412903,,17-Jul,31707,2018-04-26 00:57:37:978,,,
3.442,-11.0143,2.8694,5.3317,-8.2314,-0.2285,1.7362,1.9088,-0.1185,-0.4462,0.1035,-0.9151,0.946,-8.2,43.29,-17.95,313.4,57.04,-92.45,0,1006.08,36.883,30.453472,-84.318726,90.83,NaN,,0,48.412903,,17-Jul,31805,2018-04-26 00:57:38:076,,,
3.8526,-9.5937,1.6591,5.4493,-8.1556,0.1641,1.3529,0.2304,0.2174,0.4776,-0.0236,0.106,0.946,-9.43,42.89,-17.98,312.73,56.02,-90.48,0,1006.08,37.9,30.453472,-84.318726,90.83,NaN,,0,48.412903,,0 / 17,31905,2018-04-26 00:57:38:176,,,
4.0555,-8.4078,0.0267,5.1175,-8.3189,0.9186,1.4582,0.9325,0.2383,1.3752,0.2239,0.6216,0.946,-8.86,40.72,-22.26,298.56,57.99,-79.82,0,1006.08,37.9,30.453472,-84.318726,90.83,NaN,,0,48.412903,,0 / 17,32005,2018-04-26 00:57:38:276,,,
5.3197,-8.6088,0.1958,4.0315,-8.3789,3.127,-9.1701,-1.873,1.7932,2.4394,-0.9532,0.4016,0.946,-4.71,33.53,-30.83,264.88,58.66,-52.2,0,1006.07,37.9,30.453472,-84.318726,90.83,NaN,,0,48.412903,,0 / 17,32105,2018-04-26 00:57:38:376,,,
13.129,-6.8679,-0.4207,3.8948,-7.965,4.1982,-0.8561,-2.9957,-2.3812,0.8185,2.3904,-0.6875,0.946,-4.42,29.78,-34.99,257.87,58.66,-52.2,0,1006.07,48.709,30.453472,-84.318726,90.83,NaN,,0,48.412903,,0 / 17,32205,2018-04-26 00:57:38:476,,,
2.5646,-2.8225,3.8961,6.5736,-6.6137,3.0468,3.264,-3.8836,0.3461,1.8131,-6.3441,-0.0335,0.946,-9.7,24.55,-36.8,251.29,47.36,-47.33,0,1006.08,48.709,30.453472,-84.318726,90.83,NaN,,0,48.412903,,0 / 17,32305,2018-04-26 00:57:38:576,,,
3.0146,-8.8171,11.3002,4.8388,-7.8337,3.3846,2.3966,4.1772,-0.0083,2.2309,-3.3691,2.2785,0.946,-26.31,18.64,-31.11,235.3,47,-68.01,0,1006.06,48.709,30.453472,-84.318726,90.83,NaN,,0,48.412903,,0 / 17,32405,2018-04-26 00:57:38:676,,,
1.0187,-12.1991,5.4662,2.702,-7.8405,5.2404,-7.4353,-0.7319,4.4112,2.3265,3.4693,2.3291,0.946,-14.74,17.91,-38.01,190.67,53.06,-27.28,0,1006.06,48.709,30.453472,-84.318726,90.83,NaN,,0,48.412903,,0 / 17,32505,2018-04-26 00:57:38:776,,,
8.7612,-5.6759,3.3096,3.5651,-7.8231,4.725,-6.6331,-2.2427,0.2777,-1.4473,-1.9935,-2.7533,0.946,-5.1,16.93,-42,195.72,52.51,-15.52,2,1006.07,49.965,30.453472,-84.318726,90.83,NaN,,0,48.412903,,0 / 17,32605,2018-04-26 00:57:38:876,,,
10.2486,-5.4111,5.3486,5.7967,-7.1314,3.4319,-5.1381,-0.0359,-3.3475,-2.3058,-0.7358,-4.1702,0.946,-17.73,20.79,-36.11,244.99,46.63,-59.37,2,1006.08,49.965,30.453472,-84.318726,90.83,NaN,,0,48.412903,,0 / 17,32705,2018-04-26 00:57:38:976,,,
10.4539,-8.551,5.4374,8.4347,-2.7063,4.2153,-0.9512,5.845,-1.0114,-0.7749,2.1971,-5.9701,0.946,-19.94,17.43,-36.69,285.81,16.01,-63.45,2,1006.08,49.965,30.453472,-84.318726,90.83,NaN,,0,48.412903,,0 / 17,32805,2018-04-26 00:57:39:076,,,
10.8514,-4.8958,5.0535,8.6461,0.5215,4.6053,-1.0022,6.486,-0.7254,0.1275,0.7448,-5.8894,0.946,-21.75,9.39,-37.12,266.7,16.01,-63.45,2,1006.08,33.519,30.453472,-84.318726,90.83,NaN,,0,48.412903,,0 / 17,32905,2018-04-26 00:57:39:176,,,
8.9641,-4.1553,5.9699,5.4165,4.4355,6.8719,0.1359,3.0839,1.3511,-0.7669,2.397,-3.651,12.677,-15.48,-2.19,-42.69,293.46,-19.35,-52.24,2,1006.08,33.519,30.453472,-84.318726,90.83,NaN,,0,48.412903,,0 / 17,33005,2018-04-26 00:57:39:276,,,
3.9911,1.0097,6.6716,2.2743,5.112,8.058,0.1758,2.1719,2.5376,-0.3222,1.9999,-1.7632,12.677,-3.61,-2.24,-45.08,318.45,-29.97,-27.17,2,1006.08,33.519,30.453472,-84.318726,90.83,NaN,,0,48.412903,,0 / 17,33105,2018-04-26 00:57:39:376,,,
1.8197,4.9106,4.0508,1.3474,4.9012,8.3904,-0.0335,0.4199,1.5054,-0.5484,1.309,-0.7153,12.677,6.31,0.77,-46.21,330.2,-29.97,-9.12,2,1006.07,37.098,30.453472,-84.318726,90.83,NaN,,0,48.412903,,0 / 17,33207,2018-04-26 00:57:39:478,,,
1.1118,4.677,8.3952,0.5842,4.7808,8.5463,-0.3208,0.6001,-1.1131,-0.0683,0.3798,-0.1381,12.677,7.99,1.86,-46.05,332.46,-29.32,-5.54,2,1006.08,37.098,30.453472,-84.318726,90.83,NaN,,0,48.412903,,0 / 17,33307,2018-04-26 00:57:39:578,,,
0.8313,4.14,9.7782,0.3626,4.739,8.5817,1.0034,0.8529,-1.9938,-0.0451,0.3651,-0.0872,12.677,9.74,1.75,-44.64,332.93,-28.89,-2.42,2,1006.08,37.098,30.453472,-84.318726,90.83,NaN,,0,48.412903,,0 / 17,33407,2018-04-26 00:57:39:678,,,
0.466,4.2652,10.3743,0.3649,4.5687,8.6735,0.5639,1.3797,-2.3358,-0.2293,-0.0757,0.027,12.677,9.87,3.75,-45.41,333.92,-27.76,-2.41,2,1006.08,29.5,30.453472,-84.318726,90.83,NaN,,0,48.412903,,0 / 17,33505,2018-04-26 00:57:39:776,,,
-1.2124,3.2346,9.0309,0.351,4.4734,8.7236,0.003,-0.1289,0.7791,-0.3118,-0.0541,0.1055,12.677,10.65,3.15,-45.36,332.26,-28.02,-1.82,2,1006.08,29.5,30.453472,-84.318726,90.83,NaN,,0,48.412903,,0 / 17,33605,2018-04-26 00:57:39:876,,,
-0.2037,3.6969,8.2908,0.1762,4.0653,8.9263,0.4796,0.5084,0.5981,-0.7097,0.2852,-0.0083,12.677,10.83,4.72,-45.17,332.65,-27.13,-2.3,2,1006.07,29.5,30.453472,-84.318726,90.83,NaN,,0,48.412903,,0 / 17,33705,2018-04-26 00:57:39:976,,,
-0.2956,3.4959,8.4528,0.7102,4.2913,8.793,0.3086,0.5649,1.6667,0.3233,-0.4147,0.456,16.903,9.93,4.62,-45.34,332.93,-24.81,-2.39,2,1006.07,29.5,30.453472,-84.318726,90.83,NaN,,0,48.412903,,0 / 17,33806,2018-04-26 00:57:40:077,,,
0.5782,3.8884,6.8923,1.1661,4.3231,8.7285,-0.5178,0.7104,2.8267,0.0875,-0.5658,0.5806,16.903,7.24,2.82,-46.2,329.79,-26.15,-7.61,2,1006.07,27.99,30.453472,-84.318726,90.83,NaN,,0,48.412903,,0 / 17,33905,2018-04-26 00:57:40:176,,,
2.8057,2.186,6.6212,4.2466,3.8062,7.9822,-0.9183,3.964,2.0115,0.0922,-3.1152,1.445,16.903,2.57,3.86,-45.59,326.26,-24.76,-14.8,2,1006.07,27.99,30.453472,-84.318726,90.83,NaN,,0,48.412903,,0 / 17,34005,2018-04-26 00:57:40:276,,,
5.4307,-0.2521,5.9327,6.3789,3.0865,6.7837,-1.6185,3.6232,-0.1532,-0.0808,-3.6118,2.0658,16.903,-13.54,4.61,-42.19,313.12,-18.34,-43.24,2,1006.06,27.99,30.453472,-84.318726,90.83,NaN,,0,48.412903,,0 / 17,34105,2018-04-26 00:57:40:376,,,
8.5237,-2.4999,5.0068,8.9595,0.3299,3.9818,-1.3436,2.5585,-1.4292,-0.4038,-3.1442,2.5647,16.903,-25.29,13.13,-35.66,302.07,-1.93,-66.04,2,1006.06,28.664,30.453472,-84.318726,90.83,NaN,,0,48.412903,,0 / 17,34205,2018-04-26 00:57:40:476,,,
9.4213,-2.7527,5.6928,9.3544,-2.9539,0.0729,-0.0302,1.1569,-1.2732,1.8049,-4.3418,2.8437,16.903,-31.25,22.23,-25.19,295.08,17.52,-89.55,2,1006.05,28.664,30.453472,-84.318726,90.83,NaN,,0,48.412903,,0 / 17,34305,2018-04-26 00:57:40:576,,,
11.4626,-3.746,-0.2828,8.5699,-4.6627,-1.0255,-2.324,0.1271,1.7596,2.2894,-2.7129,2.8156,16.903,-34.36,24.36,-20.45,284.54,28.38,-96.82,2,1006.04,28.664,30.453472,-84.318726,90.83,NaN,,0,48.412903,,0 / 17,34404,2018-04-26 00:57:40:675,,,
10.4372,-5.493,-2.6577,7.3204,-6.4654,-0.9199,-3.0457,2.3161,1.6152,1.057,-0.7927,1.5129,32.75,-31.18,27.9,-21.13,284.85,35.29,-96.78,0,1006.04,28.398,30.453472,-84.318726,90.83,NaN,,0,48.412903,,0 / 17,34507,2018-04-26 00:57:40:778,,,
14.8468,-7.2796,-1.2051,7.3599,-6.3664,1.2399,-6.3247,-0.1795,2.5021,1.2257,1.0746,0.4534,32.75,-27.5,27.97,-24.83,272.32,43.53,-89.99,0,1006.05,28.398,30.453472,-84.318726,90.83,NaN,,0,48.412903,,0 / 17,34606,2018-04-26 00:57:40:877,,,
11.4471,-5.6422,0.0267,7.6213,-5.8598,1.9532,-0.1251,-3.1068,0.3098,0.7342,0.8748,-0.8297,32.75,-25.45,25.63,-28.99,271.54,40.46,-80.44,0,1006.06,28.398,30.453472,-84.318726,90.83,NaN,,0,48.412903,,0 / 17,34706,2018-04-26 00:57:40:977,,,
6.6758,-1.6463,-0.4831,7.9491,-4.8782,3.0417,1.0335,-3.6693,3.4239,-1.6797,1.6093,-1.6275,32.75,-22.38,21.28,-32.35,270.93,33.25,-70.66,0,1006.06,45.088,30.453472,-84.318726,90.83,NaN,,0,48.412903,,0 / 17,34804,2018-04-26 00:57:41:075,,,
5.6754,-2.9995,5.038,8.2382,-4.5481,2.7718,1.0585,-2.5752,0.6908,-0.9195,-0.0468,-0.9236,32.75,-21.95,22.64,-32.41,284.39,27.62,-71.4,0,1006.06,45.088,30.453472,-84.318726,90.83,NaN,,0,48.412903,,0 / 17,34906,2018-04-26 00:57:41:177,,,
4.5951,-4.2878,3.8433,8.1074,-4.7001,2.9008,0.2748,-0.9887,-0.6163,-1.117,0.9771,0.2584,32.75,-21.09,27.33,-31.22,292.64,28.63,-70.31,0,1006.07,45.088,30.453472,-84.318726,90.83,NaN,,0,48.412903,,0 / 17,35005,2018-04-26 00:57:41:276,,,
9.721,-5.0114,3.1644,7.9643,-5.0983,2.6104,-1.4601,3.0716,0.0165,-1.8096,0.5481,0.177,32.75,-18.92,30.17,-29.84,296.76,31.31,-71.85,0,1006.07,50.164,30.453472,-84.318726,90.83,NaN,,0,48.412903,,0 / 17,35106,2018-04-26 00:57:41:377,,,
9.2865,-9.6141,-0.2432,7.6561,-5.6959,2.2754,-4.0568,-0.694,2.7828,-0.8677,-0.2007,0.5316,3.169,-17.13,33.62,-26.91,306.58,33.05,-71.79,0,1006.07,50.164,30.453472,-84.318726,90.83,NaN,,0,48.412903,,0 / 17,35205,2018-04-26 00:57:41:476,,,
8.0056,-6.8498,-0.1592,6.5984,-7.0699,-1.6473,-0.5105,1.5129,-3.498,-1.5461,-2.4244,1.3206,3.169,-16.09,41.4,-16.09,321.69,41.64,-88.58,0,1006.05,50.164,30.453472,-84.318726,90.83,NaN,,0,48.412903,,0 / 17,35304,2018-04-26 00:57:41:575,,,
6.4693,-9.5587,2.4831,5.8649,-7.5991,-2.0231,-0.15,0.7967,1.5618,1.0531,-2.0805,0.9254,3.169,-14.62,43.92,-11.11,322.07,50.77,-109.03,0,1006.05,50.164,30.453472,-84.318726,90.83,NaN,,0,48.412903,,0 / 17,35405,2018-04-26 00:57:41:676,,,
4.9222,-5.818,-1.5422,5.5798,-7.8275,-1.9575,2.3119,-0.3884,-1.1451,0.5648,-0.1656,0.8582,3.169,-12.8,44.21,-9.43,329,49.78,-109.54,0,1006.07,43.213,30.453472,-84.318726,90.83,NaN,,0,48.412903,,0 / 17,35505,2018-04-26 00:57:41:776,,,
1.828,-8.167,1.1506,4.3635,-8.7457,-0.8414,2.5,-3.4974,-0.3681,1.1662,1.712,2.736,3.169,-4.83,45.56,-12.83,323.68,63.06,-100.91,0,1006.07,43.213,30.453472,-84.318726,90.83,NaN,,0,48.412903,,0 / 17,35605,2018-04-26 00:57:41:876,,,
2.5681,-6.1202,-5.2005,-0.6492,-9.7366,1.007,-6.9757,14.7046,-0.2133,1.3147,-1.3317,3.6505,3.169,17.35,39.67,-17.88,193.24,82.98,32.81,0,1006.07,43.213,30.453472,-84.318726,90.83,NaN,,0,48.412903,,0 / 17,35706,2018-04-26 00:57:41:977,,,
2.2602,-18.4826,1.2105,-0.1588,-9.8011,0.3857,4.2742,3.0848,0.2759,-0.3945,-1.1877,-0.5519,3.169,19.13,38.69,-20.02,204.7,84.95,21.9,0,1006.07,61.616,30.453472,-84.318726,90.83,NaN,,0,48.412903,,0 / 17,35804,2018-04-26 00:57:42:075,,,
-3.4136,-8.2428,0.2402,-0.3205,-9.7946,-0.4456,3.2233,-1.5033,1.0495,-1.3708,-0.4267,0.2654,0.946,15.5,40.42,-17.49,73.72,86.79,144.28,0,1006.06,61.616,30.453472,-84.318726,90.83,NaN,,0,48.412903,,0 / 17,35906,2018-04-26 00:57:42:177,,,
-2.2211,-8.6317,1.3185,-1.4882,-9.6907,-0.3345,-0.2762,-0.2365,-2.1091,1.0665,0.0409,0.7386,0.946,18.72,40.97,-13.69,86.3,81.9,133.07,0,1006.06,61.616,30.453472,-84.318726,90.83,NaN,,0,48.412903,,0 / 17,36005,2018-04-26 00:57:42:276,,,
-3.1761,-9.2156,5.5609,-1.8167,-9.6277,0.4938,-1.2589,0.3795,0.3027,0.9999,-1.3007,0.5823,0.946,20.59,36.84,-20.9,140.96,78.94,74.79,0,1006.08,49.496,30.453472,-84.318726,90.83,NaN,,0,48.412903,,0 / 17,36105,2018-04-26 00:57:42:376,,,
-0.4138,-10.0427,-0.753,-2.5758,-9.4259,0.8684,-0.6439,1.9901,-1.6025,-0.0766,-2.306,0.5011,0.946,22.01,36.1,-21,138.27,75.65,75.74,0,1006.08,49.496,30.453472,-84.318726,90.83,NaN,,0,48.412903,,0 / 17,36205,2018-04-26 00:57:42:476,,,
-3.8422,-10.5472,0.8819,-2.5502,-9.3836,1.2964,0.8409,-1.2238,1.997,0.5124,-0.4045,-0.0154,0.946,18.4,34.45,-25.08,139.03,73.05,63.05,0,1006.09,49.496,30.453472,-84.318726,90.83,NaN,,0,48.412903,,0 / 17,36305,2018-04-26 00:57:42:576,,,
-1.2458,-6.6355,-4.3897,-2.5128,-9.441,-0.8883,-6.7663,6.8407,0.4361,-2.7609,-4.0646,-0.2997,0.946,15.65,39.35,-18.33,85.25,74.24,109.47,0,1006.09,49.496,30.453472,-84.318726,90.83,NaN,,0,48.412903,,0 / 17,36405,2018-04-26 00:57:42:676,,,
1.1965,-15.2343,2.0909,0.3665,-8.9992,-3.888,3.692,5.3176,-2.1963,-1.9174,3.9033,-1.9703,0.946,9.37,44.11,-14.81,37.98,71.81,144.9,0,1006.09,51.831,30.453472,-84.318726,90.83,NaN,,0,48.412903,,0 / 17,36504,2018-04-26 00:57:42:775,,,
-3.0269,-11.4405,0.1898,0.2474,-9.3081,-3.0878,-0.7332,-4.6434,-7.3105,1.4504,-2.0536,-0.5615,0.946,3.36,47.63,-7.12,6.31,71.59,-175.42,0,1006.09,51.831,30.453472,-84.318726,90.83,NaN,,0,48.412903,,0 / 17,36606,2018-04-26 00:57:42:877,,,
-1.9382,-10.3666,1.7035,0.2694,-9.435,-2.6728,4.3881,0.9379,-2.7504,0.971,-3.6586,-1.1511,0.946,-5.31,46.8,-8.73,345.94,70.89,-174.37,0,1006.1,51.831,30.453472,-84.318726,90.83,NaN,,0,48.412903,,0 / 17,36706,2018-04-26 00:57:42:977,,,
-6.0828,-8.5643,-1.5254,-0.0886,-9.5929,-2.0505,1.9233,-1.3797,-0.4076,1.0407,-3.6259,-0.2835,0.946,-11.46,44.36,-9.81,331.49,77.92,177.53,0,1006.1,57.402,30.453472,-84.318726,90.83,NaN,,0,48.412903,,0 / 17,36809,2018-04-26 00:57:43:080,,,
-0.4341,-12.2857,-0.8141,-1.3028,-9.4659,-2.2217,0.7406,0.7718,0.7313,-0.598,-2.4526,0.256,0.946,-13.12,44.84,-5.34,331.82,77.5,158.04,0,1006.1,57.402,30.453472,-84.318726,90.83,NaN,,0,48.412903,,0 / 17,36906,2018-04-26 00:57:43:177,,,
-2.855,-8.4643,1.8498,-1.7551,-9.4732,-1.8477,1.8034,0.453,-4.0226,-0.3367,-3.5116,-0.6058,0.946,-16.39,44.51,0.51,324.69,75.45,145.18,0,1006.1,57.402,30.453472,-84.318726,90.83,NaN,,0,48.412903,,0 / 17,37005,2018-04-26 00:57:43:276,,,
-3.2095,-10.2282,0.8231,-2.1012,-9.526,-1.0376,-1.9479,-0.7036,1.8413,0.5119,-3.9782,-0.0462,0.946,-14.2,44.3,7.59,325.23,76.18,116.28,0,1006.1,60.527,30.453472,-84.318726,90.83,NaN,,0,48.412903,,0 / 17,37107,2018-04-26 00:57:43:378,,,
0.0959,-9.2939,-0.3427,-1.4783,-9.6542,-0.9206,-2.5062,1.2097,0.0257,-0.3756,-1.6976,-1.0259,0.946,-14.49,42.46,12.24,306.28,79.77,121.91,0,1006.11,60.527,30.453472,-84.318726,90.83,NaN,,0,48.412903,,0 / 17,37205,2018-04-26 00:57:43:476,,,
0.9268,-10.8903,-0.8285,-0.8173,-9.7003,-1.2131,0.0233,0.7087,-2.3893,-0.7502,-1.7986,-1.295,0.946,-15.67,40.95,14.94,276.98,81.42,146.03,0,1006.1,60.527,30.453472,-84.318726,90.83,NaN,,0,48.412903,,0 / 17,37306,2018-04-26 00:57:43:577,,,
-1.5072,-10.8157,0.4321,-0.2205,-9.7308,-1.2242,0.6653,-0.0281,-3.1926,0.2214,-1.9793,-0.5191,0.946,-17,38.53,20.32,240.25,82.72,169.79,0,1006.1,56.59,30.453472,-84.318726,90.83,NaN,,0,48.412903,,0 / 17,37405,2018-04-26 00:57:43:676,,,
-0.4699,-10.239,1.4048,-0.2268,-9.7815,-0.712,0.878,-1.5617,0.1094,0.7914,-1.6041,-0.0999,0.946,-14.73,40.3,20.71,239.1,85.63,162.33,0,1006.09,56.59,30.453472,-84.318726,90.83,NaN,,0,48.412903,,0 / 17,37506,2018-04-26 00:57:43:777,,,
-1.58,-9.3336,-1.2231,-0.9885,-9.7423,-0.5882,-1.4012,0.0284,-0.473,-0.5485,-0.3682,0.6658,0.946,-12.9,41.23,21.07,282.53,86.28,115.25,0,1006.09,56.59,30.453472,-84.318726,90.83,NaN,,0,48.412903,,0 / 17,37605,2018-04-26 00:57:43:876,,,
0.1461,-10.776,-1.3527,-0.797,-9.7022,-1.2121,-1.1881,1.0862,1.4478,-0.6093,0.0154,-0.6794,0.946,-10.58,39.77,22.1,275.21,81.39,125.49,0,1006.1,56.59,30.453472,-84.318726,90.83,NaN,,0,48.412903,,0 / 17,37705,2018-04-26 00:57:43:976,,,
-1.3031,-10.9096,-1.6717,-0.4499,-9.659,-1.6547,0.2178,-0.6451,0.2561,-0.6954,0.123,-0.5329,0.946,-13.27,37.82,25.16,234.25,79.93,164.79,0,1006.09,55.618,30.453472,-84.318726,90.83,NaN,,0,48.412903,,0 / 17,37805,2018-04-26 00:57:44:076,,,
-0.8316,-8.9375,-0.3859,-0.3707,-9.6782,-1.5594,-0.2018,0.0837,-0.3862,0.5664,-0.7076,0.041,0.946,-13.15,37.69,26.54,224.67,78.83,171.62,0,1006.08,55.618,30.453472,-84.318726,90.83,NaN,,0,48.412903,,0 / 17,37905,2018-04-26 00:57:44:176,,,
0.4445,-10.4088,-1.3335,-0.3483,-9.751,-1.016,-1.3363,-0.0301,0.8286,0.8735,-0.2229,-0.0883,0.946,-12.16,38.94,25.01,231.69,83.71,161.08,0,1006.08,55.618,30.453472,-84.318726,90.83,NaN,,0,48.412903,,0 / 17,38005,2018-04-26 00:57:44:276,,,
-1.5992,-9.5046,-2.2738,0.2383,-9.8013,-0.3384,1.4771,-0.1291,1.269,-0.1042,-0.3614,-0.3527,0.946,-13.95,39.85,21.07,178.43,87.58,-144.85,0,1006.09,51.239,30.453472,-84.318726,90.83,NaN,,0,48.412903,,0 / 17,38105,2018-04-26 00:57:44:376,,,
0.17,-10.6953,2.1665,0.2123,-9.8053,-0.2183,0.0113,0.4089,-1.4376,0.5985,0.5826,0.1395,0.946,-14.13,39.99,23.16,187.44,86.15,-155.35,0,1006.09,51.239,30.453472,-84.318726,90.83,NaN,,0,48.412903,,0 / 17,38205,2018-04-26 00:57:44:476,,,
-0.8495,-9.6105,0.0315,-0.0364,-9.7981,0.4811,-2.6833,-0.2518,1.5093,1.1794,0.1212,0.4413,0.946,-14.14,39.96,20.91,168.95,88.22,-135.8,0,1006.09,51.239,30.453472,-84.318726,90.83,NaN,,0,48.412903,,0 / 17,38305,2018-04-26 00:57:44:576,,,
3.1387,-9.3757,-1.1332,-0.8251,-9.722,1.0185,-4.2642,-0.9186,2.1643,-0.1553,0.5907,0.2162,0.946,-10.87,44.08,15.05,4.86,82.4,29.92,0,1006.09,47.278,30.453472,-84.318726,90.83,NaN,,0,48.412903,,0 / 17,38407,2018-04-26 00:57:44:678,,,
0.8874,-9.6587,-1.6981,-0.7265,-9.7683,0.5375,-0.6002,-0.3196,2.9708,-0.7708,1.0232,-0.2645,0.946,-12.32,42.65,16.62,344.56,84.71,53.51,0,1006.08,47.278,30.453472,-84.318726,90.83,NaN,,0,48.412903,,0 / 17,38505,2018-04-26 00:57:44:776,,,
-0.8722,-11.7211,2.338,-0.052,-9.8076,-0.212,0.7553,1.0746,-3.22,0.1594,-0.0569,-0.0209,0.946,-15.26,41.28,18.99,233.81,88.72,166.23,0,1006.08,47.278,30.453472,-84.318726,90.83,NaN,,0,48.412903,,0 / 17,38605,2018-04-26 00:57:44:876,,,
-0.8937,-10.9156,3.1716,-1.3144,-9.6064,1.4919,-1.8327,-1.3635,3.1452,1.6196,0.5628,0.9547,0.946,-13.23,41.68,15.97,359.53,84.28,39.66,0,1006.08,49.73,30.453472,-84.318726,90.83,NaN,,0,48.412903,,0 / 17,38705,2018-04-26 00:57:44:976,,,
0.6618,-9.0868,-0.6174,-1.5909,-9.5823,1.3726,-3.2434,0.3234,0.7864,-0.1237,0.7544,0.3129,0.946,-10.59,44.58,10.98,357.36,77.63,49.21,0,1006.08,49.73,30.453472,-84.318726,90.83,NaN,,0,48.412903,,0 / 17,38805,2018-04-26 00:57:45:076,,,
1.84,-9.6189,0.8411,-1.0234,-9.7216,0.8239,-1.0276,1.1911,-0.4241,-0.3668,-0.034,-0.4231,0.946,-11.9,44.62,13.15,353.65,82.3,51.16,0,1006.08,49.73,30.453472,-84.318726,90.83,NaN,,0,48.412903,,0 / 17,38907,2018-04-26 00:57:45:178,,,
0.3418,-11.4032,0.7679,-0.668,-9.7295,1.0617,-0.6158,1.7971,-0.122,0.3728,-0.6639,-0.5112,0.946,-13.8,44.36,12.96,356.89,82.3,51.16,0,1006.09,53.655,30.453472,-84.318726,90.83,NaN,,0,48.412903,,0 / 17,39005,2018-04-26 00:57:45:276,,,
0.041,-11.5585,1.3845,0.0152,-9.7534,1.0518,-2.2929,0.879,0.2559,-0.135,-0.3248,-0.7752,0.946,-14.62,43.33,12.82,21.43,82.81,22.12,0,1006.09,53.655,30.453472,-84.318726,90.83,NaN,,0,48.412903,,0 / 17,39104,2018-04-26 00:57:45:375,,,
3.2187,-10.8313,2.1101,0.8547,-9.736,0.8466,-0.9899,-0.4215,-0.1477,-0.3317,-0.8198,-1.3188,0.946,-19.32,41.47,15.75,83.53,82.96,-45.28,0,1006.08,53.655,30.453472,-84.318726,90.83,NaN,,0,48.412903,,0 / 17,39205,2018-04-26 00:57:45:476,,,
0.5448,-8.7244,0.5293,3.2697,-9.2462,0.2294,-1.0156,0.4167,-2.1559,-0.2011,-1.239,-1.6408,0.946,-25.55,35.5,18.77,118.96,70.48,-85.99,0,1006.09,53.655,30.453472,-84.318726,90.83,NaN,,0,48.412903,,0 / 17,39305,2018-04-26 00:57:45:576,,,
2.5574,-7.9984,-1.5146,4.8942,-8.4947,-0.3513,0.1915,-1.6235,-0.1839,-0.3275,-0.4959,-1.3465,0.946,-27.47,32.24,21.16,117.65,64.97,-90.14,0,1006.09,58.322,30.453472,-84.318726,90.83,NaN,,0,48.412903,,0 / 17,39405,2018-04-26 00:57:45:676,,,Out
4.6464,-6.9028,-0.0537,5.301,-8.2323,-0.6032,2.3952,-3.4584,-1.9392,-0.2731,-0.3799,-0.7191,0.946,-30.18,27.34,22.42,123.92,57.05,-96.49,0,1006.08,58.322,30.453472,-84.318726,90.83,NaN,,0,48.412903,,0 / 17,39506,2018-04-26 00:57:45:777,,,Out
4.0901,-7.1689,-0.2876,4.8771,-8.5098,-0.1799,-1.9259,0.1777,1.8234,0.5053,0.276,0.6919,0.946,-29.83,28.4,22.3,121.47,60.17,-92.11,0,1006.07,58.322,30.453472,-84.318726,90.83,NaN,,0,48.412903,,0 / 17,39606,2018-04-26 00:57:45:877,,,Out
9.0167,-9.0194,-3.1602,5.15,-8.3465,-0.2212,0.32,1.7039,-2.9536,-0.4266,0.5911,-0.5757,0.946,-32.03,26.37,21.09,126.12,58.3,-92.46,0,1006.07,39.978,30.453472,-84.318726,90.83,NaN,,0,48.412903,,0 / 17,39705,2018-04-26 00:57:45:976,,,Out
3.2545,-9.5563,1.9866,5.4532,-8.1455,0.3866,0.0594,0.3545,-0.1168,0.7044,-0.1764,0.1862,0.946,-32.62,27.08,20.33,120.14,55.56,-89.47,0,1006.08,39.978,30.453472,-84.318726,90.83,NaN,,0,48.412903,,0 / 17,39805,2018-04-26 00:57:46:076,,,Out
2.4965,-9.8465,-1.072,5.0363,-8.3886,0.7091,1.734,1.7777,-2.2101,1.2535,-0.9507,0.676,0.946,-32.6,28.74,18.33,117.52,56.79,-85.9,0,1006.08,39.978,30.453472,-84.318726,90.83,NaN,,0,48.412903,,17-Jul,39905,2018-04-26 00:57:46:176,,,Out
4.5103,-9.0447,4.1576,4.5935,-8.5705,1.297,-1.9538,1.6108,-0.2393,1.3224,-0.3694,0.8675,0.946,-28.07,34.41,17.67,96.24,60.89,-74.23,0,1006.08,39.234,30.453472,-84.318726,90.83,NaN,,0,48.412903,,17-Jul,40005,2018-04-26 00:57:46:276,,,Out
6.0765,-7.7985,2.3044,3.4846,-8.4996,3.4425,0.3757,0.4816,1.7607,2.0228,1.0444,1.0413,0.946,-25.86,36.7,14.4,82.77,61.06,-63.35,0,1006.08,39.234,30.453472,-84.318726,90.83,NaN,,0,48.412903,,17-Jul,40105,2018-04-26 00:57:46:376,,,Out
3.7404,-7.6733,2.5431,2.8384,-8.0922,4.7641,-1.6433,0.2285,1.0442,2.462,0.1702,1.2088,0.946,-21.67,42.78,3.59,49.56,55.58,-30.79,0,1006.08,39.234,30.453472,-84.318726,90.83,NaN,,0,48.412903,,17-Jul,40204,2018-04-26 00:57:46:475,,,Out
5.8258,-10.9036,3.5075,1.3327,-6.6584,7.08,-7.9323,0.6509,3.6872,2.1516,0.3205,0.6481,0.946,-14.13,44.45,-10.32,26.5,42.74,-10.66,0,1006.09,39.234,30.453472,-84.318726,90.83,NaN,,0,48.412903,,17-Jul,40305,2018-04-26 00:57:46:576,,,Out
9.7496,-6.5091,10.2363,3.542,-6.7731,6.1494,-6.697,-1.3983,-5.314,-0.9009,-0.3198,-1.2244,0.946,-19.69,42.79,-7.7,34.47,43.66,-29.94,0,1006.09,48.263,30.453472,-84.318726,90.83,NaN,,0,48.412903,,17-Jul,40405,2018-04-26 00:57:46:676,,,Out
9.1766,-5.5375,10.884,5.8063,-5.4654,5.7142,-1.7405,2.5148,-5.0251,-0.3327,-1.1496,-4.8235,0.946,-29.44,36.96,-5.82,59.22,43.66,-29.94,2,1006.09,48.263,30.453472,-84.318726,90.83,NaN,,0,48.412903,,17-Jul,40505,2018-04-26 00:57:46:776,,,Out
8.7075,-6.7138,10.5722,8.2964,0.7716,5.1778,-0.3173,5.3384,-2.245,0.3128,-0.0756,-6.6808,0.946,-43.43,12.84,-2,84.23,16.13,-56.2,2,1006.09,48.263,30.453472,-84.318726,90.83,NaN,,0,48.412903,,17-Jul,40605,2018-04-26 00:57:46:876,,,Out
4.1892,-5.257,3.258,7.2387,4.044,5.2424,2.8875,6.821,0.6845,0.6823,0.2465,-6.1501,0.946,-40.4,-22.82,-1.52,108.05,-24.35,-54.09,2,1006.08,53.04,30.453472,-84.318726,90.83,NaN,,0,48.412903,,17-Jul,40706,2018-04-26 00:57:46:977,,,Out
4.7944,-0.5061,4.5426,3.9683,6.7803,5.8751,1.4527,3.9091,1.0749,-0.0982,1.4766,-2.8839,0.946,-34.74,-32.28,-3.58,112.09,-37.02,-46.78,2,1006.08,53.04,30.453472,-84.318726,90.83,NaN,,0,48.412903,,17-Jul,40805,2018-04-26 00:57:47:076,,,Out
2.2387,4.447,7.0554,2.1667,6.711,6.8194,0.5951,2.1921,-0.4577,-0.4967,1.3822,-1.2876,8.452,-23.38,-41.37,-8.19,134.54,-44.63,-24.1,2,1006.08,53.04,30.453472,-84.318726,90.83,NaN,,0,48.412903,,0 / 17,40905,2018-04-26 00:57:47:176,,,Out
1.6788,5.9737,9.0537,1.7918,6.5604,7.0701,-0.4424,0.2653,-0.8451,-0.233,0.9091,0.174,8.452,-19.76,-41.04,-14.7,138.06,-41.97,-14.22,2,1006.08,31.479,30.453472,-84.318726,90.83,NaN,,0,48.412903,,0 / 17,41005,2018-04-26 00:57:47:276,,,Out
2.3986,6.3108,8.1361,1.5029,6.2945,7.3727,1.1363,1.2834,-0.4394,-0.2876,0.4153,0.2746,8.452,-19.86,-39.71,-18.03,136.39,-39.91,-11.52,2,1006.06,31.479,30.453472,-84.318726,90.83,NaN,,0,48.412903,,0 / 17,41105,2018-04-26 00:57:47:376,,,Out
1.3255,6.0327,7.0686,1.6659,6.277,7.3526,1.1581,0.5235,1.7099,0.0553,-0.0268,0.4115,8.452,-20.06,-39.13,-18.54,134.96,-39.78,-12.77,2,1006.06,31.479,30.453472,-84.318726,90.83,NaN,,0,48.412903,,0 / 17,41205,2018-04-26 00:57:47:476,,,Out
1.0724,6.1109,5.3738,2.4711,5.6049,7.6625,0.0584,-0.275,2.0851,-1.0482,-0.6325,0.3177,8.452,-23.14,-37.56,-17.63,130.93,-38.64,-15.72,2,1006.05,29.556,30.453472,-84.318726,90.83,NaN,,0,48.412903,,0 / 17,41306,2018-04-26 00:57:47:577,,,Out
2.3175,4.494,9.2588,2.8152,5.2784,7.7749,0.3886,-0.9941,0.4847,-0.4357,-0.3771,0.3528,8.452,-25.81,-34.77,-17.77,130.48,-32.55,-19.91,2,1006.05,29.556,30.453472,-84.318726,90.83,NaN,,0,48.412903,,0 / 17,41405,2018-04-26 00:57:47:676,,,Out
1.7588,6.3674,7.101,3.2453,5.4943,7.451,0.1107,-0.6001,-1.2174,0.3394,-0.3624,-0.0721,8.452,-26.05,-34.76,-17.72,130.88,-32.95,-22.14,2,1006.06,29.556,30.453472,-84.318726,90.83,NaN,,0,48.412903,,0 / 17,41505,2018-04-26 00:57:47:776,,,Out
4.299,5.2561,8.6927,3.2579,5.6373,7.3378,-1.197,0.2229,-1.2619,0.0169,-0.0719,-0.179,11.621,-26.65,-34.44,-16.3,126.42,-34.7,-24.08,2,1006.05,34.984,30.453472,-84.318726,90.83,NaN,,0,48.412903,,0 / 17,41605,2018-04-26 00:57:47:876,,,Out
2.4965,5.0454,8.1001,3.2077,5.5027,7.4611,0.1269,1.1888,-1.7256,-0.2981,0.0548,-0.1021,11.621,-25.4,-35.77,-17.32,133.65,-34.12,-23.26,2,1006.05,34.984,30.453472,-84.318726,90.83,NaN,,0,48.412903,,0 / 17,41705,2018-04-26 00:57:47:976,,,Out
4.2632,5.7943,7.1106,3.0179,5.7085,7.3852,-0.1307,0.2645,0.0651,0.0031,0.0225,-0.4859,11.621,-23.59,-35.54,-17.95,132.86,-35.59,-22.23,2,1006.04,34.984,30.453472,-84.318726,90.83,NaN,,0,48.412903,,0 / 17,41806,2018-04-26 00:57:48:077,,,Out
2.6684,5.3211,7.1202,2.7841,5.8333,7.3795,0.7989,0.1403,1.2341,0.0811,0.1177,-0.4654,11.621,-23.3,-35.82,-17.49,133.37,-36.49,-20.67,2,1006.04,34.984,30.453472,-84.318726,90.83,NaN,,0,48.412903,,0 / 17,41905,2018-04-26 00:57:48:176,,,Out
2.0799,5.9207,6.0287,2.6515,6.1257,7.189,0.3137,0.0393,1.2555,0.2828,0.022,-0.1385,11.621,-21.49,-37.45,-16.63,137.91,-37.44,-20.35,2,1006.04,27.84,30.453472,-84.318726,90.83,NaN,,0,48.412903,,0 / 17,42007,2018-04-26 00:57:48:278,,,Out
1.9104,6.4203,6.0839,2.5224,6.2283,7.1472,0.4453,-0.4826,0.3012,0.1423,0.1642,-0.1391,11.621,-20.45,-38.69,-15.72,140.34,-39.41,-19.44,2,1006.03,27.84,30.453472,-84.318726,90.83,NaN,,0,48.412903,,0 / 17,42105,2018-04-26 00:57:48:376,,,Out
1.957,6.6696,6.9883,2.3265,6.1626,7.2695,1.2777,-0.559,-0.2883,0.0048,0.2632,0.0529,11.621,-20.59,-38.37,-16.54,136.35,-38.99,-18.58,2,1006.03,27.84,30.453472,-84.318726,90.83,NaN,,0,48.412903,,0 / 17,42205,2018-04-26 00:57:48:476,,,Out
1.4496,6.5516,7.3721,2.3728,5.7595,7.5785,-0.6082,-0.3579,-1.2528,-0.521,0.1676,0.1692,12.677,-21.11,-37.69,-18.98,136.33,-38.08,-18.02,2,1006.04,29.116,30.453472,-84.318726,90.83,NaN,,0,48.412903,,0 / 17,42304,2018-04-26 00:57:48:575,,,Out
1.5165,5.3909,9.7566,2.549,5.7857,7.501,0.4543,-0.5517,0.4861,0.2242,-0.0863,0.4172,12.677,-22.92,-35.31,-18.39,130.9,-36.14,-18.77,2,1006.04,29.116,30.453472,-84.318726,90.83,NaN,,0,48.412903,,0 / 17,42406,2018-04-26 00:57:48:677,,,Out
1.7027,5.474,7.9274,2.7649,5.611,7.557,1.1809,0.2319,0.6636,-0.0708,-0.0512,0.2525,12.677,-23.27,-35.04,-18.24,133.29,-34.89,-20.1,2,1006.03,29.116,30.453472,-84.318726,90.83,NaN,,0,48.412903,,0 / 17,42504,2018-04-26 00:57:48:775,,,
1.5165,5.35,7.0074,2.9225,5.5417,7.5488,-0.0277,0.1865,0.7663,0.0048,-0.0258,0.4371,12.677,-24.62,-34.19,-19.32,128.2,-34.4,-21.16,2,1006.03,29.285,30.453472,-84.318726,90.83,NaN,,0,48.412903,,0 / 17,42605,2018-04-26 00:57:48:876,,,
3.288,5.5065,6.7292,3.2715,5.3917,7.5142,0.1572,0.1809,1.7385,0.0238,-0.0244,0.4957,12.677,-27.02,-32.44,-18.86,123.2,-33.34,-23.53,2,1006.03,29.285,30.453472,-84.318726,90.83,NaN,,0,48.412903,,0 / 17,42705,2018-04-26 00:57:48:976,,,
3.8956,4.4759,6.6596,5.1133,4.7216,6.9135,1.5098,5.4813,2.2266,0.3872,-2.0068,1.8848,12.677,-31.92,-29.45,-17.65,113.53,-31.31,-26.09,2,1006.03,29.285,30.453472,-84.318726,90.83,NaN,,0,48.412903,,0 / 17,42805,2018-04-26 00:57:49:076,,,
3.8073,-3.693,2.326,7.087,3.1268,6.0195,3.4239,8.9248,3.2661,-0.2935,-2.543,3.9181,12.677,-43.99,-15.63,-5.13,97.95,-18.59,-49.66,2,1006.04,29.285,30.453472,-84.318726,90.83,NaN,,0,48.412903,,0 / 17,42905,2018-04-26 00:57:49:176,,,
4.5008,-6.9293,2.1761,8.6725,-4.2985,1.5961,-1.3748,9.2896,0.6468,-1.5192,-4.1275,6.3913,12.677,-45.56,-0.2,5.56,92.83,1.79,-65.24,2,1006.03,33.618,30.453472,-84.318726,90.83,NaN,,0,48.412903,,0 / 17,43005,2018-04-26 00:57:49:276,,,
11.2358,-13.1562,5.7876,6.5583,-7.2902,0.2798,-10.5522,5.6456,-6.9015,0.1758,-2.7057,6.0133,12.677,-29.79,28.39,22.4,96.96,48,-87.56,0,1006.03,33.618,30.453472,-84.318726,90.83,NaN,,0,48.412903,,0 / 17,43105,2018-04-26 00:57:49:376,,,
18.4328,-8.0755,0.1059,4.5017,-8.3782,2.4034,-8.9751,-0.7561,2.628,1.8746,1.3569,0.0488,12.677,-20.12,40.89,15.98,61.66,58.66,-61.9,0,1006.03,33.618,30.453472,-84.318726,90.83,NaN,,0,48.412903,,0 / 17,43207,2018-04-26 00:57:49:478,,,
13.4323,-7.6493,-0.1172,5.3663,-7.2981,3.7653,-7.8182,-3.6444,9.933,-0.2491,0.867,-1.8317,12.677,-22.89,40.22,11.68,57.26,53.14,-53.06,0,1006.04,41.996,30.453472,-84.318726,90.83,NaN,,0,48.412903,,0 / 17,43305,2018-04-26 00:57:49:576,,,
9.2638,-6.7547,-0.9101,5.9569,-7.0336,3.3585,2.2728,3.1149,2.657,-1.9799,1.4193,-2.014,12.677,-30.38,34.54,8.86,68.63,45.81,-60.59,0,1006.04,41.996,30.453472,-84.318726,90.83,NaN,,0,48.412903,,0 / 17,43407,2018-04-26 00:57:49:678,,,
8.8293,-4.6887,-1.4055,7.573,-5.5383,2.8659,4.9671,1.3552,-6.4925,-0.6069,0.649,-1.7466,12.677,-40.13,21.31,9.64,103.11,40.12,-68.55,0,1006.05,41.996,30.453472,-84.318726,90.83,NaN,,0,48.412903,,0 / 17,43507,2018-04-26 00:57:49:778,,,
6.7796,-6.0612,1.4828,7.7745,-5.5636,2.1998,5.1167,1.4959,-0.3445,-0.7258,-0.7545,-0.2435,12.677,-41.02,19.35,10.45,99.44,34.37,-69.27,0,1006.05,47.64,30.453472,-84.318726,90.83,NaN,,0,48.412903,,0 / 17,43605,2018-04-26 00:57:49:876,,,
2.635,-6.9774,2.8142,7.4107,-5.8061,2.758,0.9423,-0.8524,0.3465,0.4613,0.243,0.9382,12.677,-41.09,18.17,10.88,101.8,33.64,-72.29,0,1006.05,47.64,30.453472,-84.318726,90.83,NaN,,0,48.412903,,0 / 17,43705,2018-04-26 00:57:49:976,,,
5.8091,-5.9264,4.5582,6.8978,-6.3153,2.9619,1.0244,-2.4419,-0.6371,0.2074,0.3262,0.7368,4.226,-40.1,22.34,8.8,98.39,38.5,-67.04,0,1006.05,47.64,30.453472,-84.318726,90.83,NaN,,0,48.412903,,0 / 17,43805,2018-04-26 00:57:50:076,,,
4.8255,-8.2007,4.2931,6.5605,-6.7241,2.8253,-3.7874,0.916,1.9221,0.4506,-0.7078,1.1548,4.226,-37.13,26.84,9.78,92.22,43.27,-66.7,0,1006.06,41.251,30.453472,-84.318726,90.83,NaN,,0,48.412903,,0 / 17,43906,2018-04-26 00:57:50:177,,,
7.3801,-6.001,1.1506,5.9178,-7.5179,2.1672,1.0278,-0.392,0.7434,-0.0132,-1.1393,1.0555,4.226,-34.76,29.41,11.21,91.51,46.74,-67.53,0,1006.06,41.251,30.453472,-84.318726,90.83,NaN,,0,48.412903,,0 / 17,44006,2018-04-26 00:57:50:277,,,
5.6122,-7.6758,1.8342,5.2907,-8.1564,1.311,-4.3638,0.991,-0.9954,-0.5354,-1.6871,1.6295,4.226,-29.03,33.87,15.96,93.34,56.25,-76.08,0,1006.07,41.251,30.453472,-84.318726,90.83,NaN,,0,48.412903,,0 / 17,44105,2018-04-26 00:57:50:376,,,
7.8385,-8.9074,1.574,5.9818,-7.7554,-0.555,-1.3364,1.1369,-3.3186,-1.9696,-0.1248,-1.3922,4.226,-26.63,30.26,23.73,102.22,52.24,-95.3,0,1006.07,41.251,30.453472,-84.318726,90.83,NaN,,0,48.412903,,0 / 17,44205,2018-04-26 00:57:50:476,,,
4.6799,-8.71,1.6196,6.5907,-7.2354,-0.669,-0.7755,0.5367,-1.9337,0.3285,-0.6288,-1.3284,4.226,-29.98,25.54,26.21,105.64,47.52,-95.8,0,1006.07,43.369,30.453472,-84.318726,90.83,NaN,,0,48.412903,,0 / 17,44305,2018-04-26 00:57:50:576,,,
7.5293,-7.5999,1.4096,7.237,-6.6164,-0.2901,1.4319,-0.4487,-0.6434,1.0435,-0.3373,-0.5879,4.226,-30.22,25.5,26.15,101.02,44.4,-94.75,0,1006.09,43.369,30.453472,-84.318726,90.83,NaN,,0,48.412903,,0 / 17,44405,2018-04-26 00:57:50:676,,,
5.9942,-6.3129,1.4168,7.2336,-6.6264,0.0279,1.5579,-0.1967,-2.2819,2.2968,-1.678,0.2262,1.183,-28.29,28.13,25.38,85.54,41.69,-91.35,0,1006.09,43.369,30.453472,-84.318726,90.83,NaN,,0,48.412903,,0 / 17,44505,2018-04-26 00:57:50:776,,,
5.6229,-6.1864,1.4876,7.1152,-6.7521,-0.1389,-2.6592,-0.9548,-0.061,2.4475,-2.7493,0.242,1.183,-22.51,35.7,22.71,66.13,43.49,-91.12,0,1006.09,35.74,30.453472,-84.318726,90.83,NaN,,0,48.412903,,0 / 17,44607,2018-04-26 00:57:50:878,,,
6.1481,-6.0913,3.8721,7.1212,-6.7424,-0.2518,1.4943,2.119,-1.8038,2.0129,-1.9818,0.4116,1.183,-17.1,40.18,19.95,48.93,43.42,-92.03,0,1006.11,35.74,30.453472,-84.318726,90.83,NaN,,0,48.412903,,0 / 17,44706,2018-04-26 00:57:50:977,,,
5.5644,-8.899,1.6699,6.649,-7.2044,-0.3515,1.5674,0.416,0.7291,2.2215,-2.5345,0.8181,1.183,-13.14,42.68,17.42,40.62,47.26,-93.03,0,1006.11,35.74,30.453472,-84.318726,90.83,NaN,,0,48.412903,,0 / 17,44807,2018-04-26 00:57:51:078,,,
5.3674,-2.2567,2.6187,6.2085,-7.5841,-0.4158,-2.3207,-1.3985,0.1644,2.1611,-2.3793,-0.0277,1.183,-5.33,46.77,8.16,16.67,50.63,-93.83,0,1006.13,48.634,30.453472,-84.318726,90.83,NaN,,0,48.412903,,0 / 17,44904,2018-04-26 00:57:51:175,,,
8.9236,-7.4193,-0.9617,6.6781,-7.1841,-0.1654,0.8013,1.9353,-0.7691,2.0936,-1.3867,-0.479,1.183,-7.64,47.64,1.26,0.65,48.61,-95.05,0,1006.12,48.634,30.453472,-84.318726,90.83,NaN,,0,48.412903,,0 / 17,45004,2018-04-26 00:57:51:275,,,
4.4793,-6.3297,-0.7482,6.2032,-7.5995,0.0595,-0.3301,0.1048,1.3139,1.2038,-0.6957,1.1995,1.183,-8.41,47.24,-4.13,350.91,47.08,-91.42,0,1006.06,48.634,30.453472,-84.318726,90.83,NaN,,0,48.412903,,0 / 17,45105,2018-04-26 00:57:51:376,,,
5.6969,-8.3066,-1.469,2.0943,-9.4259,-1.7327,-1.9112,-8.11,-5.8393,0.4986,-2.3937,3.792,1.183,3.64,47.73,-0.68,0.38,61.53,-106.48,0,1006.06,60.101,30.453472,-84.318726,90.83,NaN,,0,48.412903,,0 / 17,45205,2018-04-26 00:57:51:476,,,
5.5393,-12.0955,-4.4532,0.9101,-9.6708,-1.3724,0.1399,6.5775,4.8692,0.2979,1.6026,1.6918,1.183,18.86,44.65,-3.09,34.84,80.34,-146.45,0,1006.07,60.101,30.453472,-84.318726,90.83,NaN,,0,48.412903,,0 / 17,45307,2018-04-26 00:57:51:578,,,
-0.7242,-11.148,-2.419,1.688,-9.3478,-2.4506,-1.3393,3.3265,-1.1599,-0.4866,-3.4129,-0.0026,1.183,10.94,46.22,-6.2,12.94,72.34,-145.44,0,1006.07,60.101,30.453472,-84.318726,90.83,NaN,,0,48.412903,,0 / 17,45406,2018-04-26 00:57:51:677,,,
0.392,-7.2194,-2.7596,1.1749,-9.3465,-2.7382,0.397,-1.4898,0.3853,-0.2807,-1.5161,0.3576,1.183,10.96,46.78,-6.19,18.12,72.32,-156.78,0,1006.07,60.101,30.453472,-84.318726,90.83,NaN,,0,48.412903,,0 / 17,45506,2018-04-26 00:57:51:777,,,
3.2844,-6.4393,-2.1239,1.9552,-9.3256,-2.3336,-2.8466,1.1322,-0.599,1.2227,-2.2571,-1.7198,1.183,3.86,47.08,-10.34,352.14,71.92,-140.04,0,1006.08,59.008,30.453472,-84.318726,90.83,NaN,,0,48.412903,,0 / 17,45606,2018-04-26 00:57:51:877,,,
4.2513,-8.9471,-4.5168,2.4004,-9.1966,-2.4284,0.372,-0.9867,0.8938,-0.7163,1.0126,-0.4023,1.183,1.59,46.96,-11.56,344.19,72.46,-136.86,0,1006.09,59.008,30.453472,-84.318726,90.83,NaN,,0,48.412903,,0 / 17,45705,2018-04-26 00:57:51:976,,,
1.2694,-8.1007,-2.0915,2.6102,-9.1368,-2.4374,2.8763,2.9542,-6.0802,-0.05,0.3279,-0.3071,1.183,0.67,46.57,-10,345.06,69.63,-135.33,0,1006.09,59.008,30.453472,-84.318726,90.83,NaN,,0,48.412903,,0 / 17,45805,2018-04-26 00:57:52:076,,,
0.6355,-13.503,3.0613,3.2199,-9.147,-1.4833,5.8054,-0.2481,6.273,0.8185,0.6915,0.1445,1.183,0.02,46.14,-9.82,340.65,67.31,-125.69,0,1006.11,59.974,30.453472,-84.318726,90.83,NaN,,0,48.412903,,0 / 17,45907,2018-04-26 00:57:52:178,,,
-0.9736,-11.7993,-6.3927,2.6086,-9.1956,-2.2073,0.7556,3.4984,-1.5469,0.0392,-3.7251,0.174,1.183,-2.02,46.52,-11.64,334.79,69.61,-130.24,0,1006.11,59.974,30.453472,-84.318726,90.83,NaN,,0,48.412903,,0 / 17,46007,2018-04-26 00:57:52:278,,,
4.2597,-6.8655,-0.5083,3.4127,-8.9374,-2.1707,-3.3124,1.2463,3.8253,-0.3695,2.4053,-0.5142,1.183,-2.32,46.21,-10.27,336.92,65.65,-122.46,0,1006.11,59.974,30.453472,-84.318726,90.83,NaN,,0,48.412903,,0 / 17,46105,2018-04-26 00:57:52:376,,,
10.3381,-2.5589,-4.4976,4.1139,-8.7238,-1.7911,4.1714,4.0732,-0.0975,-0.5653,1.9442,-0.1981,1.183,-1.7,47.56,-10.12,337.15,64.59,-117.81,0,1006.11,68.262,30.453472,-84.318726,90.83,NaN,,0,48.412903,,0 / 17,46204,2018-04-26 00:57:52:475,,,
-0.7158,-10.4352,-1.8708,3.6028,-8.9901,-1.5598,2.814,-0.0088,1.2023,0.4917,-0.2053,0.907,1.183,0,47.92,-9.32,339.83,66.41,-113.41,0,1006.11,68.262,30.453472,-84.318726,90.83,NaN,,0,48.412903,,0 / 17,46305,2018-04-26 00:57:52:576,,,
3.9947,-9.9031,2.0549,1.9036,-9.6047,-0.6013,-1.5032,1.5087,-2.8616,0.8249,1.4255,1.5083,1.183,8.41,45.76,-12.03,336.08,78.26,-107.53,0,1006.11,68.262,30.453472,-84.318726,90.83,NaN,,0,48.412903,,0 / 17,46406,2018-04-26 00:57:52:677,,,Out
3.5566,-11.095,2.2636,0.9905,-9.7598,-0.0476,-4.0184,-2.0737,1.0832,0.9042,0.7015,1.4902,1.183,12.48,44.34,-13.01,323.86,84.2,-92.75,0,1006.11,57.183,30.453472,-84.318726,90.83,NaN,,0,48.412903,,0 / 17,46505,2018-04-26 00:57:52:776,,,Out
5.0428,-9.5094,-0.4003,1.8245,-9.6317,-0.3705,-3.3057,0.9795,1.4726,-0.6788,0.63,-1.4073,1.183,14.8,43.66,-12.88,326.43,84.24,-90.4,0,1006.11,57.183,30.453472,-84.318726,90.83,NaN,,0,48.412903,,0 / 17,46606,2018-04-26 00:57:52:877,,,Out
1.9952,-11.1781,-1.4366,3.0703,-9.3172,-0.0077,1.8556,0.323,-1.6363,-0.1515,-0.199,-1.649,1.183,7.62,46.62,-12.17,336.32,72.91,-100.78,0,1006.11,57.183,30.453472,-84.318726,90.83,NaN,,0,48.412903,,0 / 17,46705,2018-04-26 00:57:52:976,,,Out
2.5896,-10.003,-0.278,3.0976,-9.2926,0.5367,0.1451,-1.3283,1.1355,0.7317,0.5961,-0.1223,1.183,7.55,45.53,-14.65,320.78,71.31,-80.17,0,1006.11,50.931,30.453472,-84.318726,90.83,NaN,,0,48.412903,,0 / 17,46805,2018-04-26 00:57:53:076,,,Out
2.9919,-7.9587,-0.4015,2.8843,-9.117,2.1901,-2.1303,1.2627,-0.6318,1.4335,2.9948,0.8918,1.183,5.8,44.41,-16.14,316.84,68.45,-76.41,0,1006.11,50.931,30.453472,-84.318726,90.83,NaN,,0,48.412903,,0 / 17,46905,2018-04-26 00:57:53:176,,,Out
4.1152,-9.0459,1.887,0.9439,-9.1968,3.2808,1.5698,-5.2751,5.3196,1.0715,3.0447,2.0844,1.183,19.57,38.84,-17.56,275.99,69.63,-16.05,0,1006.12,50.931,30.453472,-84.318726,90.83,NaN,,0,48.412903,,0 / 17,47007,2018-04-26 00:57:53:278,,,Out
-1.2649,-8.2007,-0.4183,2.0285,-9.3048,2.3541,-0.0392,0.3302,-1.3846,-0.2833,-1.7242,0.0661,1.183,13.89,40.94,-19.65,287.11,71.53,-40.75,0,1006.11,50.931,30.453472,-84.318726,90.83,NaN,,0,48.412903,,0 / 17,47107,2018-04-26 00:57:53:378,,,Out
0.0959,-7.9202,2.1533,2.1336,-9.5102,1.1136,1.0289,-0.8129,-0.2622,0.0098,-1.8349,0.2832,1.183,10.17,41.86,-21.53,290.52,75.8,-62.44,0,1006.11,53.563,30.453472,-84.318726,90.83,NaN,,0,48.412903,,0 / 17,47205,2018-04-26 00:57:53:476,,,Out
1.0736,-8.6558,1.9662,1.5135,-9.4731,2.051,-0.5201,-0.3287,5.952,1.5942,1.6513,0.7851,1.183,10.02,41.91,-20.92,292.18,75.8,-62.44,0,1006.12,53.563,30.453472,-84.318726,90.83,NaN,,0,48.412903,,0 / 17,47308,2018-04-26 00:57:53:579,,,Out
1.2383,-11.0721,-0.1184,1.8212,-9.6033,0.834,1.2339,0.616,-1.0124,-1.7826,0.5255,0.0218,1.183,10.72,41.07,-21.54,278.86,74.62,-45.7,0,1006.12,53.563,30.453472,-84.318726,90.83,NaN,,0,48.412903,,0 / 17,47405,2018-04-26 00:57:53:676,,,Out
2.3461,-9.8284,1.1902,2.2249,-9.5543,0.0391,-0.5298,2.6451,0.6694,-1.329,0.442,-0.7235,1.183,9.91,44.58,-13.61,324.28,76.89,-88.99,0,1006.08,62.478,30.453472,-84.318726,90.83,NaN,,0,48.412903,,0 / 17,47504,2018-04-26 00:57:53:775,,,Out
2.1575,-11.8306,1.8774,3.0576,-9.3163,0.3066,0.4417,1.4718,1.3582,1.2044,0.1107,-0.6407,1.183,7.63,45.4,-13.33,331.48,73.94,-97.68,0,1006.08,62.478,30.453472,-84.318726,90.83,NaN,,0,48.412903,,0 / 17,47605,2018-04-26 00:57:53:876,,,Out
2.6231,-10.7928,-0.7865,3.4833,-9.1145,1.0142,-0.2477,1.1913,1.3812,1.611,-1.1982,-0.63,1.183,3.57,43.25,-20.6,303.37,68.3,-73.77,0,1006.08,62.478,30.453472,-84.318726,90.83,NaN,,0,48.412903,,0 / 17,47705,2018-04-26 00:57:53:976,,,Out
1.8185,-6.9437,-1.7497,4.8433,-8.4486,1.1832,1.46,0.5961,-0.2496,1.309,-4.0825,-1.2825,1.183,-5.26,39.86,-24.71,295.54,59.45,-76.27,0,1006.08,61.197,30.453472,-84.318726,90.83,NaN,,0,48.412903,,0 / 17,47805,2018-04-26 00:57:54:076,,,Out
4.0806,-9.6539,3.5722,4.4737,-7.0414,5.1615,-3.5022,-1.142,4.9474,3.8425,1.926,0.5526,1.183,-8.71,26.34,-36.63,250.43,45.87,-40.92,0,1006.07,61.197,30.453472,-84.318726,90.83,NaN,,0,48.412903,,0 / 17,47905,2018-04-26 00:57:54:176,,,Out
8.7147,-3.498,2.9162,4.2664,-6.3247,6.167,-8.2794,-4.6565,3.6285,2.3147,-0.1012,0.5776,1.183,-4.59,18,-40.38,243.53,40.14,-34.68,0,1006.07,61.197,30.453472,-84.318726,90.83,NaN,,0,48.412903,,0 / 17,48004,2018-04-26 00:57:54:275,,,Out
12.7662,-1.4609,2.6942,6.3884,-5.2877,5.2406,-5.5657,-3.3983,-1.4083,-0.0636,-2.1761,-1.9836,1.183,-10.27,13.5,-42.32,236.21,37.49,-39.15,0,1006.07,61.197,30.453472,-84.318726,90.83,NaN,,0,48.412903,,0 / 17,48105,2018-04-26 00:57:54:376,,,Out
11.4578,-2.0713,7.3481,7.5142,-3.9953,4.8796,-2.0393,-2.4762,-1.4171,0.0936,-0.7291,-2.8322,1.183,-19.54,9.02,-40.15,251.72,24.03,-57,2,1006.07,35.752,30.453472,-84.318726,90.83,NaN,,0,48.412903,,0 / 17,48207,2018-04-26 00:57:54:478,,,Out
10.5423,-2.9176,5.1123,8.573,-0.0712,4.768,-0.6644,4.4126,-0.0554,-0.4096,-0.2184,-4.5676,1.183,-20.54,4.82,-39.86,259.23,13.93,-58.9,2,1006.07,35.752,30.453472,-84.318726,90.83,NaN,,0,48.412903,,0 / 17,48307,2018-04-26 00:57:54:578,,,Out
9.1635,-4.0337,4.948,6.8818,3.4755,6.0661,-0.5832,5.2486,-4.1414,-1.016,0.1842,-4.3019,1.183,-19.56,-3.71,-40.71,278,-11.3,-59.47,2,1006.08,35.752,30.453472,-84.318726,90.83,NaN,,0,48.412903,,0 / 17,48405,2018-04-26 00:57:54:676,,,Out
7.4589,0.6738,5.6041,5.7783,5.0266,6.1303,-0.0279,3.3336,0.3388,0.2865,0.2922,-3.5885,1.183,-9.67,-10.05,-42.77,296.26,-30.82,-43.31,2,1006.07,49.672,30.453472,-84.318726,90.83,NaN,,0,48.412903,,0 / 17,48506,2018-04-26 00:57:54:777,,,Out
4.8852,2.4328,7.0794,3.5521,6.4124,6.5192,-0.5304,0.3729,1.0735,0.6876,0.5393,-1.5609,1.183,-0.27,-13.56,-44.37,304.85,-40.82,-28.58,2,1006.07,49.672,30.453472,-84.318726,90.83,NaN,,0,48.412903,,0 / 17,48605,2018-04-26 00:57:54:876,,,Out
2.5383,2.8915,7.3757,2.8689,6.7559,6.5087,1.7197,2.3607,0.0787,0.3385,0.4382,-1.1654,14.79,1.92,-14.59,-44.61,310.27,-43.53,-23.79,2,1006.07,49.672,30.453472,-84.318726,90.83,NaN,,0,48.412903,,0 / 17,48705,2018-04-26 00:57:54:976,,,Out
0.7107,4.6349,6.4101,2.368,7.2817,6.1324,-0.2389,1.4681,1.3993,0.3209,-0.4328,-0.3016,14.79,3.96,-16.56,-42.58,311.41,-46.35,-20.27,2,1006.06,33.028,30.453472,-84.318726,90.83,NaN,,0,48.412903,,0 / 17,48805,2018-04-26 00:57:55:076,,,Out
1.982,5.8376,4.4706,2.2073,7.2501,6.229,-0.0111,0.6548,0.3965,-0.2229,-0.0123,-0.3331,14.79,3.96,-16.25,-42.78,315.09,-47.65,-19.51,2,1006.06,33.028,30.453472,-84.318726,90.83,NaN,,0,48.412903,,17-Nov,48905,2018-04-26 00:57:55:176,,,Out
2.0346,6.4252,6.3286,2.1494,7.1834,6.3257,0.6163,-0.301,0.2067,-0.083,-0.0727,-0.1962,14.79,3.62,-15.76,-43.69,315.39,-47.06,-19.26,2,1006.05,33.028,30.453472,-84.318726,90.83,NaN,,0,48.412903,,17-Nov,49005,2018-04-26 00:57:55:276,,,Out
1.7898,8.3383,5.4014,1.7602,7.0857,6.5522,-0.0595,-1.2843,0.666,-0.4524,0.3729,-0.1439,14.79,5.12,-14.81,-44.1,317.94,-47.52,-17.26,2,1006.05,26.382,30.453472,-84.318726,90.83,NaN,,0,48.412903,,17-Nov,49105,2018-04-26 00:57:55:376,,,Out
0.651,7.8723,8.0402,1.5465,6.9507,6.7478,0.658,-0.2318,-0.9083,-0.2997,0.481,0.0326,14.79,7.51,-13.64,-44.54,318.15,-45.12,-12.91,2,1006.05,26.382,30.453472,-84.318726,90.83,NaN,,0,48.412903,,17-Nov,49207,2018-04-26 00:57:55:478,,,Out
0.1341,5.4222,9.4975,1.413,6.6954,7.0293,0.2987,0.4413,-0.7365,0.0989,0.311,0.2504,14.79,9.81,-12.26,-45.03,316.96,-43.04,-11.37,2,1006.06,26.382,30.453472,-84.318726,90.83,NaN,,0,48.412903,,17-Nov,49305,2018-04-26 00:57:55:576,,,Out
1.3923,6.8225,7.4272,1.3986,6.7315,6.9976,0.666,0.9868,-0.3263,0.0631,0.2181,0.171,14.79,9.14,-12.55,-43.92,317.35,-43.33,-11.3,2,1006.06,26.382,30.453472,-84.318726,90.83,NaN,,0,48.412903,,17-Nov,49405,2018-04-26 00:57:55:676,,,Out
1.2085,5.8027,6.8983,1.5014,6.5531,7.1441,0.1253,0.7318,0.3659,0.0223,0.0576,0.2695,25.355,9.96,-11.62,-43.94,315.59,-42.19,-11.26,2,1006.05,28.428,30.453472,-84.318726,90.83,NaN,,0,48.412903,,17-Nov,49505,2018-04-26 00:57:55:776,,,
1.2049,5.9375,6.1606,1.5735,6.774,6.919,0.2585,0.4888,0.3613,0.3812,0.0054,0.2235,25.355,10.46,-13.59,-43.52,312.66,-42.56,-11.94,2,1006.05,28.428,30.453472,-84.318726,90.83,NaN,,0,48.412903,,17-Nov,49605,2018-04-26 00:57:55:876,,,
1.2037,6.1711,6.7616,1.7577,6.7962,6.8526,-0.7397,0.2544,-1.9798,0.0513,-0.2009,0.2151,25.355,10.08,-13.94,-42.92,311.89,-43.67,-12.81,2,1006.06,28.428,30.453472,-84.318726,90.83,NaN,,0,48.412903,,17-Nov,49705,2018-04-26 00:57:55:976,,,
2.3867,6.1145,8.7682,1.9824,6.7341,6.8526,0.2065,0.2405,-0.0386,-0.1611,-0.1976,0.0341,25.355,8.9,-14.45,-42.85,309.96,-43.71,-15.45,2,1006.06,55.333,30.453472,-84.318726,90.83,NaN,,0,48.412903,,17-Nov,49805,2018-04-26 00:57:56:076,,,
2.6839,6.8995,6.6644,2.0628,6.4414,7.1056,-0.2335,1.3391,-1.7799,-0.629,-0.2777,-0.15,25.355,7.86,-11.72,-43.57,310.82,-41.04,-16.19,2,1006.06,55.333,30.453472,-84.318726,90.83,NaN,,0,48.412903,,17-Nov,49905,2018-04-26 00:57:56:176,,,
2.7747,6.4047,6.4749,2.0156,6.5004,7.0653,0.2998,0.9586,0.1269,-0.1907,-0.1131,-0.3283,25.355,7.16,-11.47,-44.8,315.13,-41.5,-15.92,2,1006.06,55.333,30.453472,-84.318726,90.83,NaN,,0,48.412903,,17-Nov,50005,2018-04-26 00:57:56:276,,,
1.6573,5.5077,7.053,1.9811,6.5929,6.9889,0.4082,0.6541,0.8963,0.1523,-0.1063,-0.1929,25.355,7.49,-11.7,-44.19,314.38,-42.2,-15.75,2,1006.06,47.677,30.453472,-84.318726,90.83,NaN,,0,48.412903,,17-Nov,50104,2018-04-26 00:57:56:375,,,
1.7409,6.1675,6.4233,2.0371,6.6243,6.943,0.1148,0.1528,0.775,0.0986,-0.0308,0.0927,26.411,7.88,-11.66,-44.69,312.72,-42.47,-16.35,2,1006.06,47.677,30.453472,-84.318726,90.83,NaN,,0,48.412903,,17-Nov,50205,2018-04-26 00:57:56:476,,,
1.686,6.9609,6.4845,2.0253,6.4236,7.1324,-0.34,-0.6571,-1.3339,-0.3864,0.1521,0.0686,26.411,7.05,-10.94,-45.61,315.72,-42.29,-16.43,2,1006.07,47.677,30.453472,-84.318726,90.83,NaN,,0,48.412903,,17-Nov,50304,2018-04-26 00:57:56:575,,,
1.2037,6.4938,9.332,1.8569,6.4019,7.1975,0.5487,-0.4503,-0.2675,0.0193,0.425,0.0921,26.411,9.78,-9.8,-45.58,313.17,-40.74,-14.47,2,1006.07,49.485,30.453472,-84.318726,90.83,NaN,,0,48.412903,,17-Nov,50404,2018-04-26 00:57:56:675,,,
1.7266,6.9128,7.552,1.8942,6.2115,7.3529,0.1138,0.1493,-1.1607,-0.2193,0.1779,0.2878,26.411,9.95,-9.83,-44.1,311.58,-40.52,-14.6,2,1006.06,49.485,30.453472,-84.318726,90.83,NaN,,0,48.412903,,17-Nov,50505,2018-04-26 00:57:56:776,,,
2.1694,5.8316,6.596,2.1117,6.2907,7.2252,-0.4976,0.1238,1.0029,0.3124,-0.0517,0.4952,26.411,8.47,-11.14,-43.85,310.67,-39.89,-16.29,2,1006.06,49.485,30.453472,-84.318726,90.83,NaN,,0,48.412903,,17-Nov,50605,2018-04-26 00:57:56:876,,,
