ACCELEROMETER X (m/s²),ACCELEROMETER Y (m/s²),ACCELEROMETER Z (m/s²),GRAVITY X (m/s²),GRAVITY Y (m/s²),GRAVITY Z (m/s²),LINEAR ACCELERATION X (m/s²),LINEAR ACCELERATION Y (m/s²),LINEAR ACCELERATION Z (m/s²),GYROSCOPE X (rad/s),GYROSCOPE Y (rad/s),GYROSCOPE Z (rad/s),LIGHT (lux),MAGNETIC FIELD X (μT),MAGNETIC FIELD Y (μT),MAGNETIC FIELD Z (μT),ORIENTATION Z (azimuth °),ORIENTATION X (pitch °),ORIENTATION Y (roll °),PROXIMITY (i),ATMOSPHERIC PRESSURE (hPa),SOUND LEVEL (dB),LOCATION Latitude : ,LOCATION Longitude : ,LOCATION Altitude ( m),LOCATION Altitude-google ( m),LOCATION Altitude-atmospheric pressure ( m),LOCATION Speed ( Kmh),LOCATION Accuracy ( m),LOCATION ORIENTATION (°),Satellites in range,Time since start in ms ,YYYY-MO-DD HH-MI-SS_SSS,,,LABEL_DATA
-0.3242,3.2346,9.278,0.2918,3.8314,9.0261,0.0183,0.032,0.1697,0.0627,0.0289,0.3635,12.677,14.85,-15.22,-29.55,261.52,-22.81,-1.4,2,1015.26,64.225,30.453497,-84.31869,57.44,NaN,,0,58.7871,,0 / 19,4,2018-04-20 21:51:21:639,,,
0.3347,3.6656,8.7322,0.1948,3.7565,9.0602,-0.4497,0.4678,-0.3338,-0.1227,0.302,0.3004,12.677,14.35,-15.76,-29.73,257.95,-22.99,-1.85,2,1015.26,48.058,30.453497,-84.31869,57.44,NaN,,0,58.7871,,0 / 19,104,2018-04-20 21:51:21:739,,,
0.3538,3.1046,10,0.2892,3.6982,9.0816,0.0387,0.5733,-0.3573,0.0929,-0.1564,-0.0253,12.677,14.35,-15.28,-31.1,260.29,-21.84,-1.29,2,1015.26,48.058,30.453497,-84.31869,57.44,NaN,,0,58.7871,,0 / 19,204,2018-04-20 21:51:21:839,,,
0.8683,3.4778,8.9961,0.1276,3.4077,9.1982,-0.1118,0.1926,-0.6193,-0.4986,0.326,0.0963,12.677,14.57,-14.78,-30.98,257.68,-20.33,-0.79,2,1015.26,48.058,30.453497,-84.31869,57.44,NaN,,0,58.7871,,0 / 19,303,2018-04-20 21:51:21:938,,,
0.0172,3.1082,9.2624,0.2451,3.3516,9.2164,0.1761,-0.0072,0.3255,0.2374,-0.3991,-0.5356,12.677,14.58,-13.28,-31.71,264.86,-19.98,-1.52,2,1015.25,48.058,30.453497,-84.31869,57.44,NaN,,0,58.7871,,0 / 19,404,2018-04-20 21:51:22:039,,,
-0.4938,3.1106,8.9122,0.398,3.0185,9.3256,0.024,0.7227,-0.7706,-0.3821,-0.3235,0.1509,12.677,14.3,-13.37,-31.87,263.16,-19.35,-1.12,2,1015.25,44.027,30.453497,-84.31869,57.44,NaN,,0,58.7871,,0 / 19,503,2018-04-20 21:51:22:138,,,
0.8719,2.7663,10.0696,0.3621,3.2261,9.2573,0.0171,0.3029,0.2113,0.3472,-0.0363,-0.2973,12.677,14.1,-12.84,-32.47,262.74,-19.2,-2.24,2,1015.25,44.027,30.453497,-84.31869,57.44,NaN,,0,58.7871,,0 / 19,604,2018-04-20 21:51:22:239,,,
1.0079,2.735,9.7518,0.2979,2.8445,9.3838,-0.0948,0.9329,0.391,-0.5513,-0.0686,-0.1799,12.677,15.06,-11.92,-32.08,261.65,-16.86,-1.82,2,1015.25,44.027,30.453497,-84.31869,57.44,NaN,,0,58.7871,,0 / 19,703,2018-04-20 21:51:22:338,,,
0.2989,2.0234,9.0621,0.1165,2.5152,9.4814,-2.6659,-0.1137,0.027,-0.5349,0.4042,0.3252,14.79,15.07,-10.38,-33.01,269.48,-16.86,-1.82,2,1015.26,43.31,30.453497,-84.31869,57.44,NaN,,0,58.7871,,0 / 19,804,2018-04-20 21:51:22:439,,,
2.8582,3.6187,6.9067,0.3321,2.8136,9.392,-2.4186,0.2201,1.9841,0.0861,-0.7731,-0.8956,14.79,16.13,-9.88,-32.06,267.7,-16.27,-0.11,2,1015.25,43.31,30.453497,-84.31869,57.44,NaN,,0,58.7871,,0 / 19,904,2018-04-20 21:51:22:539,,,
2.7377,1.7393,9.6558,0.6902,2.5699,9.4422,0.0216,0.973,-0.2588,-0.437,-0.8126,-0.8304,14.79,13.2,-8.11,-34.98,274.33,-15.19,-4.18,2,1015.25,43.31,30.453497,-84.31869,57.44,NaN,,0,58.7871,,0 / 19,1004,2018-04-20 21:51:22:639,,,
0.3287,0.2632,11.7884,1.6114,2.3324,9.3915,0.7878,0.8705,-1.3952,-0.3848,-0.0258,-0.2758,14.79,11.46,-6.4,-37.37,277.99,-13.75,-9.74,2,1015.25,44.08,30.453497,-84.31869,57.44,NaN,,0,58.7871,,0 / 19,1104,2018-04-20 21:51:22:739,,,
0.9542,2.0451,10.9428,1.8359,2.4533,9.3192,0.4,0.0754,-0.3682,0.3314,-0.4072,-0.0553,14.79,11.89,-6.79,-36.5,273.5,-13.29,-9.7,2,1015.25,44.08,30.453497,-84.31869,57.44,NaN,,0,58.7871,,0 / 19,1204,2018-04-20 21:51:22:839,,,
1.2168,2.3485,9.4855,1.7192,2.4143,9.3515,0.0292,-0.1599,-0.2031,-0.088,0.1619,-0.1157,14.79,10.69,-6.36,-37.38,278.61,-14.25,-10.42,2,1015.25,44.08,30.453497,-84.31869,57.44,NaN,,0,58.7871,,0 / 19,1303,2018-04-20 21:51:22:938,,,
1.3613,2.2353,9.1736,1.4301,2.537,9.3677,-0.0402,0.3528,-0.4398,-0.0227,0.2613,-0.291,14.79,11.71,-5.92,-36.48,279.64,-14.99,-8.68,2,1015.26,44.08,30.453497,-84.31869,57.44,NaN,,0,58.7871,,0 / 19,1404,2018-04-20 21:51:23:039,,,
1.4783,2.1487,9.9113,1.2785,2.6002,9.3723,-0.5403,0.4589,-0.2362,0.0921,0.2181,-0.1403,15.847,13.86,-6.24,-35.74,279.6,-15.37,-7.77,2,1015.24,40.707,30.453497,-84.31869,57.44,NaN,,0,58.7871,,0 / 19,1504,2018-04-20 21:51:23:139,,,
1.6991,1.9476,9.7554,1.1955,2.6444,9.3709,-0.338,0.3776,0.2086,-0.0335,0.1722,-0.0642,15.847,13.25,-6.14,-36.41,280.82,-15.74,-7.94,2,1015.24,40.707,30.453497,-84.31869,57.44,NaN,,0,58.7871,,0 / 19,1604,2018-04-20 21:51:23:239,,,
1.6036,2.2691,9.1964,1.2207,2.6813,9.3572,-0.2025,0.4064,0.3586,-0.0119,0.0127,-0.0843,15.847,12.75,-5.82,-35.95,281.31,-15.88,-7.56,2,1015.25,40.707,30.453497,-84.31869,57.44,NaN,,0,58.7871,,0 / 19,1704,2018-04-20 21:51:23:339,,,
1.6311,1.9067,9.1496,1.2514,2.6899,9.3507,-0.4156,0.7409,1.8119,0.0218,-0.0524,-0.0274,15.847,13.67,-6.12,-36.15,280.64,-15.91,-7.62,2,1015.25,47.774,30.453497,-84.31869,57.44,NaN,,0,58.7871,,0 / 19,1804,2018-04-20 21:51:23:439,,,
1.6705,1.9428,7.6359,2.1613,2.6882,9.1836,-0.0142,1.5848,1.8209,0.1258,-1.0296,0.2477,15.847,12.18,-5.69,-36.22,280.64,-15.69,-9.23,2,1015.25,47.774,30.453497,-84.31869,57.44,NaN,,0,58.7871,,0 / 19,1904,2018-04-20 21:51:23:539,,,
2.4977,0.6353,8.4144,3.0687,2.7713,8.896,0.8565,2.8192,1.6897,0.4331,-1.3262,0.8597,15.847,5.34,-8.5,-37.73,276.71,-16.41,-19.03,2,1015.25,47.774,30.453497,-84.31869,57.44,NaN,,0,58.7871,,0 / 19,2004,2018-04-20 21:51:23:639,,,
1.6299,0.3355,2.3632,7.8911,2.1133,5.4314,1.7926,3.0497,0.3488,1.3577,-6.1422,3.0998,15.847,-15.76,-12.52,-34.07,253.24,-12.44,-55.46,2,1015.25,55.623,30.453497,-84.31869,57.44,NaN,,0,58.7871,,0 / 19,2104,2018-04-20 21:51:23:739,,,
12.8891,1.5081,7.2629,9.5618,0.5559,2.1211,-5.1281,-0.1272,0.4926,2.4785,-5.5821,3.7692,29.58,-33.46,-11.59,-22.88,237.18,-3.25,-77.49,2,1015.26,55.623,30.453497,-84.31869,57.44,NaN,,0,58.7871,,0 / 19,2204,2018-04-20 21:51:23:839,,,
14.8636,-0.3195,0.0087,9.3872,-1.7256,-2.2668,-6.9564,-0.2229,0.745,2.6517,-3.3393,1.1023,29.58,-46.22,-5.65,3.32,175.24,4.82,-92.71,0,1015.25,55.623,30.453497,-84.31869,57.44,NaN,,0,58.7871,,0 / 19,2303,2018-04-20 21:51:23:938,,,
11.1582,-1.3958,-7.5754,9.2027,-1.4577,-3.0694,-1.4241,0.154,-0.8172,-0.6649,-0.3315,-0.6134,29.58,-48.05,-4.34,11.18,194.32,11.35,-106.95,0,1015.27,53.093,30.453497,-84.31869,57.44,NaN,,0,58.7871,,19-Sep,2404,2018-04-20 21:51:24:039,,,
6.9849,-2.4662,-2.3134,9.1289,-1.3289,-3.3367,-1.1872,0.33,-1.242,-0.0158,-0.4699,-0.2203,29.58,-45.88,-7.19,13.24,194.97,7.79,-110.08,0,1015.27,53.093,30.453497,-84.31869,57.44,NaN,,0,58.7871,,19-Sep,2504,2018-04-20 21:51:24:139,,,
9.1253,-1.7257,-2.4226,9.2898,-0.8707,-3.0295,1.6057,0.8649,1.0137,-0.0639,0.5708,-0.1722,29.58,-44.87,-7.6,13.45,194.55,5.7,-110.12,0,1015.28,53.093,30.453497,-84.31869,57.44,NaN,,0,58.7871,,19-Sep,2603,2018-04-20 21:51:24:238,,,
7.6331,-1.8028,-3.8979,9.3348,-1.0266,-2.8363,-0.4556,-0.6709,-0.3507,0.3616,0.2964,0.1521,29.58,-45.36,-7.7,11.3,191.3,6.01,-106.9,0,1015.28,47.346,30.453497,-84.31869,57.44,NaN,,0,58.7871,,19-Sep,2704,2018-04-20 21:51:24:339,,,
9.6076,-1.2562,-2.5785,9.5433,-1.3646,-1.8164,0.2828,0.4961,-0.6555,0.5354,0.8895,0.2671,29.58,-46.98,-5.98,7.23,188.66,8,-100.78,0,1015.31,47.346,30.453497,-84.31869,57.44,NaN,,0,58.7871,,19-Sep,2804,2018-04-20 21:51:24:439,,,
8.3935,-2.601,-1.2159,9.4416,-2.633,-0.3988,0.7599,0.6373,-0.2754,0.7167,1.0849,1.315,29.58,-48.84,-2,3.77,172.73,15.57,-92.42,0,1015.31,47.346,30.453497,-84.31869,57.44,NaN,,0,58.7871,,19-Sep,2903,2018-04-20 21:51:24:538,,,
8.9689,-2.1327,-0.2312,8.9808,-3.9466,0.0701,2.2578,-0.0901,-0.3436,0.9328,0.4797,2.2473,3.169,-48.83,3.28,3.02,174.84,15.57,-92.42,0,1015.3,47.346,30.453497,-84.31869,57.44,NaN,,0,58.7871,,19-Sep,3004,2018-04-20 21:51:24:639,,,
5.254,-4.9307,0.2654,7.5539,-6.2533,0.2665,-0.6232,-1.6731,-2.4713,-0.1765,-0.1166,1.8456,3.169,-49.32,16.26,1.94,161.81,33,-87.27,0,1015.3,42.415,30.453497,-84.31869,57.44,NaN,,0,58.7871,,19-Sep,3103,2018-04-20 21:51:24:738,,,
7.2201,-4.7754,0.4861,7.1842,-6.6798,0.0668,-0.0088,-0.5713,-1.3146,0.1106,-0.5217,0.9209,3.169,-47.65,22.08,4.05,164.96,42.92,-89.47,0,1015.31,42.415,30.453497,-84.31869,57.44,NaN,,0,58.7871,,19-Sep,3204,2018-04-20 21:51:24:839,,,
7.1186,-8.6859,0.8843,6.8943,-6.975,0.2323,-0.9363,1.7462,-0.3892,0.2948,0.0045,0.2929,3.169,-48.09,22.62,3.8,164.67,44.31,-89.2,0,1015.31,42.415,30.453497,-84.31869,57.44,NaN,,0,58.7871,,19-Sep,3304,2018-04-20 21:51:24:939,,,
7.7262,-8.7978,0.7775,6.8233,-7.0447,0.2239,-1.9901,3.5726,-0.1193,-0.0366,-0.2286,-0.133,3.169,-47.58,24.49,3.45,163.26,46.33,-87.11,0,1015.3,52.685,30.453497,-84.31869,57.44,NaN,,0,58.7871,,19-Sep,3404,2018-04-20 21:51:25:039,,,
6.2377,-1.3501,0.9682,6.6613,-7.201,-0.0892,-0.9209,-0.3198,0.3767,-0.2038,-0.5184,0.4026,3.169,-47.27,25.47,5.67,163.01,47.23,-90.77,0,1015.62,52.685,30.453497,-84.31869,57.44,NaN,,0,58.7871,,19-Sep,3504,2018-04-20 21:51:25:139,,,
6.2544,-7.0725,0.263,6.9423,-6.809,-1.2956,-0.1097,0.083,-0.0556,-1.2029,-0.5218,-0.3139,3.169,-47.93,22.32,9.87,176.78,43.95,-100.57,0,1015.62,52.685,30.453497,-84.31869,57.44,NaN,,0,58.7871,,19-Sep,3603,2018-04-20 21:51:25:238,,,
7.6272,-12.7577,-2.2487,6.8762,-6.7625,-1.7952,-1.1892,1.5778,1.2917,-0.3636,-0.7927,-0.0487,0.946,-47.53,22.12,12.02,181.62,43.58,-104.63,0,1015.82,54.449,30.453497,-84.31869,57.44,NaN,,0,58.7871,,19-Sep,3704,2018-04-20 21:51:25:339,,,
7.9459,-8.3921,-3.129,6.614,-6.69,-2.7812,1.8502,-1.1086,-1.9107,-0.7194,-1.1078,0.1026,0.946,-46.84,22.27,16.63,170.52,43.52,-106.36,0,1015.49,54.449,30.453497,-84.31869,57.44,NaN,,0,58.7871,,19-Sep,3804,2018-04-20 21:51:25:439,,,
4.7145,-7.9503,-1.1248,6.3418,-6.4271,-3.8354,-0.4512,-1.5234,0.3702,-0.084,-1.0249,-0.14,0.946,-44.32,20.49,21.73,182.41,41.57,-117.43,0,1015.49,54.449,30.453497,-84.31869,57.44,NaN,,0,58.7871,,19-Sep,3904,2018-04-20 21:51:25:539,,,
4.4387,-5.6747,-3.8595,6.1858,-6.445,-4.054,1.7543,-0.9852,0.6121,0.1546,-0.6926,-0.0617,0.946,-43.16,19.6,26.18,185.81,41.07,-123.24,0,1015.42,54.449,30.453497,-84.31869,57.44,NaN,,0,58.7871,,19-Sep,4004,2018-04-20 21:51:25:639,,,
4.3337,-5.5122,-4.5816,6.1771,-6.527,-3.9342,0.9006,-1.7009,0.4206,0.0641,0.2865,0.0444,0.946,-42.56,20.19,25.84,186.49,41.47,-123.53,0,1015.47,54.495,30.453497,-84.31869,57.44,NaN,,0,58.7871,,19-Sep,4104,2018-04-20 21:51:25:739,,,
6.0932,-7.4542,-6.4947,6.1153,-6.5533,-3.9866,0.3627,-0.711,1.6964,-0.1131,0.0189,0.1442,0.946,-42.8,20.57,25.34,188.23,41.91,-123.1,0,1015.47,54.495,30.453497,-84.31869,57.44,NaN,,0,58.7871,,19-Sep,4204,2018-04-20 21:51:25:839,,,
6.2138,-6.7463,-6.5678,6.1534,-6.6814,-3.7055,2.6502,3.7793,-1.487,0.2596,0.4012,0.2388,0.946,-42.8,21.37,23.11,187.93,42.93,-121.06,0,1015.41,54.495,30.453497,-84.31869,57.44,NaN,,0,58.7871,,19-Sep,4304,2018-04-20 21:51:25:939,,,
5.599,-6.0143,-0.633,6.3899,-6.6298,-3.3838,-2.5509,1.3785,-3.2064,-0.2776,1.0767,0.0028,0.946,-44.09,21,21.24,186.65,42.52,-117.9,0,1015.36,51.872,30.453497,-84.31869,57.44,NaN,,0,58.7871,,19-Sep,4403,2018-04-20 21:51:26:038,,,
9.0071,-8.0887,0.2846,6.8704,-6.5544,-2.4643,0.4624,-1.0076,-0.7579,0.1116,0.8874,-0.3388,0.946,-46.73,21.05,15.89,193.25,42.94,-113.78,0,1015.36,51.872,30.453497,-84.31869,57.44,NaN,,0,58.7871,,19-Sep,4504,2018-04-20 21:51:26:139,,,
6.9575,-6.8619,-1.6118,7.1741,-6.4969,-1.5997,-0.1933,-0.9534,0.3629,-0.131,0.9885,-0.1097,0.946,-47.97,20.36,10.9,187.83,42.01,-105.8,0,1015.37,51.872,30.453497,-84.31869,57.44,NaN,,0,58.7871,,19-Sep,4603,2018-04-20 21:51:26:238,,,
7.2082,-5.8409,-2.4693,7.1628,-6.5704,-1.3269,-0.3663,-1.6085,1.564,0.0387,0.5898,0.1695,0.946,-47.54,20.18,7.68,182.83,42.05,-100.5,0,1015.37,52.75,30.453497,-84.31869,57.44,NaN,,0,58.7871,,19-Sep,4704,2018-04-20 21:51:26:339,,,
7.429,-5.0559,-2.6961,6.8449,-6.9764,-0.8442,-0.2758,0.5991,0.0598,0.7436,-0.0491,0.3927,0.946,-47.07,22.22,7.08,182.28,43.57,-99.28,0,1015.42,52.75,30.453497,-84.31869,57.44,NaN,,0,58.7871,,19-Sep,4803,2018-04-20 21:51:26:438,,,
7.0888,-7.9719,-1.2147,6.8208,-7.0305,-0.5345,-2.8759,1.0398,1.4466,0.2478,0.4757,0.0965,0.946,-47.52,23.23,5.51,173.15,45.78,-94.48,0,1015.47,52.75,30.453497,-84.31869,57.44,NaN,,0,58.7871,,19-Sep,4904,2018-04-20 21:51:26:539,,,
10.8956,-8.7388,-1.4702,6.9848,-6.7919,-1.1488,2.3892,1.0724,-1.3047,-0.2325,-1.2339,-0.4059,0.946,-47.98,21.95,7.41,182.85,43.82,-99.34,0,1015.13,49.698,30.453497,-84.31869,57.44,NaN,,0,58.7871,,19-Sep,5003,2018-04-20 21:51:26:638,,,
6.8847,-11.3924,-1.138,6.86,-6.1738,-3.3257,-0.4449,1.4488,-0.8908,-1.2658,-1.1837,-0.3839,0.946,-47.52,20.38,12.18,192,41.96,-108.5,0,1015.13,49.698,30.453497,-84.31869,57.44,NaN,,0,58.7871,,19-Sep,5104,2018-04-20 21:51:26:739,,,
7.2607,-7.7215,-2.1659,6.6123,-5.9894,-4.0792,1.284,-1.3168,-1.0261,-0.4831,-1.3521,-0.1896,0.946,-46.18,17.45,19.23,205.77,37.63,-121.67,0,1015.02,49.698,30.453497,-84.31869,57.44,NaN,,0,58.7871,,19-Sep,5204,2018-04-20 21:51:26:839,,,
4.2095,-4.8597,-2.9215,6.3264,-6.0123,-4.4794,3.2293,-2.4509,-0.5086,0.4424,-0.386,-0.1689,0.946,-43.76,17.21,24.17,198.63,37.36,-125.06,0,1015.02,50.239,30.453497,-84.31869,57.44,NaN,,0,58.7871,,19-Sep,5304,2018-04-20 21:51:26:939,,,
3.7487,-3.8616,-4.067,6.5045,-6.154,-4.007,-2.2956,4.4252,0.4606,0.6728,0.5543,-0.0932,0.946,-44.59,18.4,22.45,195.76,38.85,-121.63,0,1015.07,50.239,30.453497,-84.31869,57.44,NaN,,0,58.7871,,19-Sep,5404,2018-04-20 21:51:27:039,,,
5.981,-4.49,-6.334,6.4214,-6.0761,-4.2523,-2.9473,5.8821,1.4771,-0.4349,-0.1085,-0.111,0.946,-43.74,18.08,23.78,189.66,39.53,-122.11,0,1015.23,50.239,30.453497,-84.31869,57.44,NaN,,0,58.7871,,19-Sep,5504,2018-04-20 21:51:27:139,,,
9.265,-11.998,-5.6743,6.3523,-6.4165,-3.8357,3.2458,3.5552,-2.0795,-0.3364,0.86,0.1563,0.946,-43.65,18.55,23.23,194.91,40.9,-123.14,0,1015.23,50.239,30.453497,-84.31869,57.44,NaN,,0,58.7871,,19-Sep,5603,2018-04-20 21:51:27:238,,,
5.9655,-3.6605,0.744,6.6483,-6.4411,-3.2479,-2.7117,0.7076,-2.3509,0.3634,1.0105,-0.1225,0.946,-46.29,19.46,18.71,189.68,41.04,-116.04,0,1015.23,49.4,30.453497,-84.31869,57.44,NaN,,0,58.7871,,19-Sep,5703,2018-04-20 21:51:27:338,,,
6.1708,-6.3405,-1.9656,7.1923,-6.3511,-2.0423,-1.5443,0.4324,-1.0787,0.3752,1.1119,-0.0687,0.946,-46.75,18.48,16.8,183.27,40.11,-111.09,0,1015.34,49.4,30.453497,-84.31869,57.44,NaN,,0,58.7871,,19-Sep,5803,2018-04-20 21:51:27:438,,,
7.5185,-7.2808,-0.7578,7.2305,-6.45,-1.5338,0.4671,-0.5624,-0.0676,0.2779,0.8686,0.1519,0.946,-48.58,18.71,10.85,178.19,41.11,-101.98,0,1015.34,49.4,30.453497,-84.31869,57.44,NaN,,0,58.7871,,19-Sep,5904,2018-04-20 21:51:27:539,,,
6.819,-4.9331,-1.4402,6.9611,-6.8471,-0.9474,-0.0895,-0.2981,0.4133,0.537,0.173,0.4432,0.946,-48.1,19.79,8.18,181.2,42.41,-99.91,0,1015.43,47.838,30.453497,-84.31869,57.44,NaN,,0,58.7871,,19-Sep,6004,2018-04-20 21:51:27:639,,,
7.7561,-6.656,-1.4546,6.8223,-7.0206,-0.6358,-1.5847,0.0343,1.1047,0.365,0.3561,0.3746,0.946,-47.81,23.18,6.32,175.31,45.7,-95.32,0,1015.5,47.838,30.453497,-84.31869,57.44,NaN,,0,58.7871,,19-Sep,6104,2018-04-20 21:51:27:739,,,
10.4038,-8.7244,-1.5974,6.913,-6.9306,-0.6429,0.7163,-0.153,-3.1868,-0.2929,-0.2503,-0.2956,0.946,-47.76,23.29,5.97,170.53,46.14,-93.39,0,1015.5,47.838,30.453497,-84.31869,57.44,NaN,,0,58.7871,,19-Sep,6204,2018-04-20 21:51:27:839,,,
6.1971,-6.7234,2.4064,6.9496,-6.4081,-2.6219,0.8455,4.8899,-0.3678,-1.5601,-1.0379,-0.2275,0.946,-47.44,20.18,11.11,177.83,43.04,-102.35,0,1015.22,51.909,30.453497,-84.31869,57.44,NaN,,0,58.7871,,19-Sep,6304,2018-04-20 21:51:27:939,,,
7.4624,-7.3832,-2.3446,6.8346,-6.0663,-3.5672,0.3362,-0.4103,-1.3915,-1.2397,-1.0691,-0.2485,0.946,-46.72,17.78,19.48,196.04,38.2,-117.56,0,1015.07,51.909,30.453497,-84.31869,57.44,NaN,,0,58.7871,,19-Sep,6403,2018-04-20 21:51:28:038,,,Out
5.2767,-4.4648,-2.5701,6.2238,-6.1325,-4.4602,2.4996,-1.819,-1.9279,0.296,-1.0552,-0.1344,0.946,-43.91,16.52,26.04,193.62,38.69,-125.63,0,1015.07,51.909,30.453497,-84.31869,57.44,NaN,,0,58.7871,,19-Sep,6504,2018-04-20 21:51:28:139,,,Out
2.4655,-3.067,-3.4637,6.2771,-6.2552,-4.2079,3.3279,-2.7414,-0.7254,0.5841,0.0928,-0.1003,0.946,-43.8,18.17,24.65,191.52,39.62,-123.84,0,1015.07,51.909,30.453497,-84.31869,57.44,NaN,,0,58.7871,,19-Sep,6604,2018-04-20 21:51:28:239,,,Out
8.5463,-8.787,-5.1513,6.4244,-6.3597,-3.8102,-0.8285,1.266,2.9102,-0.3019,-0.1104,0.0795,0.946,-45.25,18.43,22.18,192.19,40.41,-120.67,0,1015.07,54.607,30.453497,-84.31869,57.44,NaN,,0,58.7871,,19-Sep,6704,2018-04-20 21:51:28:339,,,Out
10.8287,-11.567,-4.9102,6.124,-6.5202,-4.0274,3.2294,3.1117,-2.1908,0.5213,-0.3809,0.4451,0.946,-44.03,18.19,23.98,191.17,39.1,-122.58,0,1015.27,54.607,30.453497,-84.31869,57.44,NaN,,0,58.7871,,19-Sep,6804,2018-04-20 21:51:28:439,,,Out
3.1626,-8.4704,-2.5605,6.3607,-6.4026,-3.845,-2.568,2.0274,-3.3079,-0.1959,0.6235,-0.2067,0.946,-44.34,18.72,24.04,192.24,41.66,-123.33,0,1015.31,54.607,30.453497,-84.31869,57.44,NaN,,0,58.7871,,19-Sep,6904,2018-04-20 21:51:28:539,,,Out
7.1091,-6.5223,-0.9952,6.8086,-6.4457,-2.8867,0.2464,-0.787,-1.4145,0.191,0.8909,-0.3506,0.946,-45.29,18.87,20.45,188.78,41.92,-117.33,0,1015.42,55.196,30.453497,-84.31869,57.44,NaN,,0,58.7871,,19-Sep,7004,2018-04-20 21:51:28:639,,,Out
6.5087,-6.4838,-0.7746,7.0076,-6.4774,-2.2743,0.2415,-0.437,-0.3982,0.3389,1.0581,-0.0628,0.946,-47.93,18.93,14.49,184.58,41.32,-107.98,0,1015.42,55.196,30.453497,-84.31869,57.44,NaN,,0,58.7871,,19-Sep,7104,2018-04-20 21:51:28:739,,,Out
7.2464,-6.184,-2.3146,7.07,-6.6497,-1.4257,0.3926,-1.0419,1.5017,0.2784,0.4384,0.2157,0.946,-48.27,20.63,11.31,175.87,42.68,-101.4,0,1015.51,55.196,30.453497,-84.31869,57.44,NaN,,0,58.7871,,19-Sep,7203,2018-04-20 21:51:28:838,,,Out
7.2822,-5.5856,-2.8316,6.9271,-6.8181,-1.3285,-0.4321,-1.5702,0.9442,0.2431,0.0133,0.3516,0.946,-47.54,20.71,10.3,177.64,44.03,-100.86,0,1015.51,54.203,30.453497,-84.31869,57.44,NaN,,0,58.7871,,19-Sep,7303,2018-04-20 21:51:28:938,,,Out
7.842,-6.367,-0.4987,6.895,-6.9247,-0.8624,-1.0251,-0.3757,0.6628,0.3277,0.2972,-0.0128,0.946,-48.04,22.53,10.23,167.71,44.9,-97.13,0,1015.51,54.203,30.453497,-84.31869,57.44,NaN,,0,58.7871,,19-Sep,7403,2018-04-20 21:51:29:038,,,Out
9.8511,-9.342,-0.711,6.9306,-6.8503,-1.1296,-0.1733,0.9339,-2.2254,-0.2039,-0.7686,-0.1588,0.946,-47.54,22.47,9.12,176.38,44.29,-99.26,0,1015.46,54.203,30.453497,-84.31869,57.44,NaN,,0,58.7871,,19-Sep,7503,2018-04-20 21:51:29:138,,,Out
5.1024,-8.6582,1.1626,6.9249,-6.6415,-2.0429,0.2399,0.6872,-1.1956,-1.1671,-0.9951,-0.2634,0.946,-47.49,21.35,11.54,167.11,44.29,-99.26,0,1015.16,51.65,30.453497,-84.31869,57.44,NaN,,0,58.7871,,19-Sep,7603,2018-04-20 21:51:29:238,,,Out
7.047,-8.7124,-2.5185,6.7723,-6.0814,-3.659,0.8052,1.8473,-0.1763,-0.9372,-0.6998,-0.1126,0.946,-46.67,18.35,18.27,186.95,40.08,-113.54,0,1015.16,51.65,30.453497,-84.31869,57.44,NaN,,0,58.7871,,19-Sep,7703,2018-04-20 21:51:29:338,,,Out
4.4423,-4.6044,-3.5357,6.6178,-6.058,-3.9677,1.3607,-1.4019,-0.5236,0.0409,-0.7588,-0.0778,0.946,-45.3,17,22.3,193.75,38.14,-120.94,0,1015.07,51.65,30.453497,-84.31869,57.44,NaN,,0,58.7871,,19-Sep,7803,2018-04-20 21:51:29:438,,,Out
4.1642,-4.425,-3.9003,6.5457,-6.3672,-3.5846,-1.7555,0.473,-0.0299,0.7145,0.211,-5.00E-04,0.946,-45.64,20.05,21.55,188.92,40.47,-118.71,0,1015.07,48.977,30.453497,-84.31869,57.44,NaN,,0,58.7871,,19-Sep,7903,2018-04-20 21:51:29:538,,,Out
8.3911,-8.8845,-3.9495,6.5888,-6.2716,-3.673,1.4555,-0.8633,1.9043,-0.2413,-0.2303,-0.2654,0.946,-45.36,19.17,21.07,188,41,-117.97,0,1015.27,48.977,30.453497,-84.31869,57.44,NaN,,0,58.7871,,19-Sep,8004,2018-04-20 21:51:29:639,,,Out
8.125,-9.9717,-3.5165,6.4066,-6.424,-3.7314,-1.7256,2.6711,-0.22,0.3339,-0.4552,0.1664,0.946,-45.2,19.34,22.97,188.44,40.91,-120.22,0,1015.31,48.977,30.453497,-84.31869,57.44,NaN,,0,58.7871,,19-Sep,8104,2018-04-20 21:51:29:739,,,Out
5.6706,-8.7689,-3.5596,6.0301,-6.9884,-3.3221,1.4515,0.0801,-2.5724,0.429,0.2074,0.3617,0.946,-44.35,22.63,22.14,185.94,45.43,-118.85,0,1015.31,48.977,30.453497,-84.31869,57.44,NaN,,0,58.7871,,19-Sep,8204,2018-04-20 21:51:29:839,,,Out
4.5545,-7.0208,-0.741,5.9846,-7.2911,-2.6945,-1.2496,2.3458,-0.7908,1.2754,0.0737,0.149,0.946,-44.42,24.64,21.68,186.41,45.43,-118.85,0,1015.11,50.153,30.453497,-84.31869,57.44,NaN,,0,58.7871,,19-Sep,8304,2018-04-20 21:51:29:939,,,Out
6.979,-10.062,-1.2423,5.9868,-7.733,-0.7715,1.1097,2.7308,-0.6548,2.0707,0.6441,0.2731,0.946,-44.21,26.93,18.01,169.97,49.26,-108.34,0,1014.89,50.153,30.453497,-84.31869,57.44,NaN,,0,58.7871,,19-Sep,8404,2018-04-20 21:51:30:039,,,Out
5.3794,-10.0764,-2.0232,6.203,-7.4877,1.301,-5.6209,-0.8089,0.9469,1.2656,0.7894,-0.8728,0.946,-45.66,30.53,10.57,141.78,53.62,-86.06,0,1014.89,50.153,30.453497,-84.31869,57.44,NaN,,0,58.7871,,19-Sep,8504,2018-04-20 21:51:30:139,,,Out
12.5059,-0.7072,-4.6703,7.613,-6.1724,0.4252,-7.4857,-0.0524,-3.9545,-2.2188,0.2951,-3.2225,1.056,-48.91,18.78,10.18,140.93,38.99,-86.8,0,1014.91,54.075,30.453497,-84.31869,57.44,NaN,,0,58.7871,,19-Sep,8604,2018-04-20 21:51:30:239,,,Out
15.4664,-5.6013,4.2067,9.4265,2.3928,1.2852,-2.374,8.6448,-1.8816,-1.641,2.3102,-8.7193,1.056,-49.89,0.51,7.48,154.35,16.89,-90.54,0,1015.01,54.075,30.453497,-84.31869,57.44,NaN,,0,58.7871,,19-Sep,8703,2018-04-20 21:51:30:338,,,Out
10.3262,-5.2341,1.4612,5.9048,7.4449,2.4378,2.3309,11.9104,2.9864,0.205,2.461,-10.1432,1.056,-15.67,-35.29,-4.39,166.97,-49.37,-67.57,2,1015.01,54.075,30.453497,-84.31869,57.44,NaN,,0,58.7871,,19-Sep,8803,2018-04-20 21:51:30:438,,,Out
-1.1026,-2.7961,1.0306,-0.3072,8.8512,4.2187,0.9204,1.2249,6.6652,-2.2478,2.1143,-3.0988,1.056,16.65,-31.29,-6.12,247.47,-64.46,4.17,2,1015.09,49.989,30.453497,-84.31869,57.44,NaN,,0,58.7871,,19-Sep,8903,2018-04-20 21:51:30:538,,,Out
-2.2139,2.7133,3.2628,-1.403,7.8977,5.6475,-2.5251,2.1193,0.513,-2.7758,0.4289,-1.7394,1.056,21.12,-26.55,-9.86,257.07,-53.62,13.95,2,1015.15,49.989,30.453497,-84.31869,57.44,NaN,,0,58.7871,,19-Sep,9003,2018-04-20 21:51:30:638,,,Out
1.0617,5.0105,6.1546,-0.2123,6.5803,7.2726,-0.7027,1.2465,-3.2971,-0.8865,-1.7848,0.4822,1.056,21.51,-21.26,-19.88,276.18,-45.28,10.13,2,1015.15,49.989,30.453497,-84.31869,57.44,NaN,,0,58.7871,,19-Sep,9103,2018-04-20 21:51:30:738,,,Out
1.5797,6.371,11.6481,-0.3307,5.261,8.2734,-1.2006,-0.7598,-2.7138,-0.9514,0.7085,-0.0172,1.056,18.2,-18.51,-25.49,267.57,-35.91,-0.22,2,1015.18,49.989,30.453497,-84.31869,57.44,NaN,,0,58.7871,,19-Sep,9203,2018-04-20 21:51:30:838,,,Out
-0.7874,5.3079,8.9721,-0.1758,5.3438,8.2249,-0.4942,0.2334,0.3724,0.1604,-0.256,0.0725,194.385,18.68,-18.17,-26.19,267.78,-33.01,1.22,2,1015.18,41.621,30.453497,-84.31869,57.44,NaN,,0,58.7871,,19-Sep,9303,2018-04-20 21:51:30:938,,,Out
0.5567,6.0278,6.9871,-0.0603,5.5571,8.084,-0.7397,-1.1548,0.4106,0.1565,0.2028,0.3107,194.385,18.17,-18.81,-26.16,266.17,-33.89,0.48,2,1015.19,41.621,30.453497,-84.31869,57.44,NaN,,0,58.7871,,19-Sep,9404,2018-04-20 21:51:31:039,,,Out
0.6403,6.7153,7.7619,0.0775,5.7654,7.9367,-0.9231,-1.1567,-0.3354,0.3965,-0.2217,0.055,451.099,17.1,-20.27,-23.92,262.81,-35.99,-0.56,2,1015.21,41.621,30.453497,-84.31869,57.44,NaN,,0,58.7871,,19-Sep,9504,2018-04-20 21:51:31:139,,,
0.7501,6.4107,8.7095,0.0835,5.9899,7.7686,0.1181,-1.243,0.1673,0.456,-0.1661,0.0513,451.099,17.25,-20.59,-23.61,263.1,-37.63,-0.62,2,1015.22,40.287,30.453497,-84.31869,57.44,NaN,,0,58.7871,,19-Sep,9604,2018-04-20 21:51:31:239,,,
-0.0163,7.5978,7.4368,0.4589,6.045,7.7125,-0.2867,0.8891,-1.9719,-0.1902,-0.2481,0.1626,391.938,16.5,-21.38,-22.93,260.26,-38.04,-3.4,2,1015.22,40.287,30.453497,-84.31869,57.44,NaN,,0,58.7871,,19-Sep,9704,2018-04-20 21:51:31:339,,,
0.6642,5.1574,9.7722,0.324,6.1965,7.5983,-0.1671,1.844,-0.7904,0.3554,0.4058,0.1519,391.938,16.02,-22.05,-24.28,262.16,-39.17,-2.44,2,1015.23,40.287,30.453497,-84.31869,57.44,NaN,,0,58.7871,,19-Sep,9804,2018-04-20 21:51:31:439,,,
-0.6012,6.188,5.9747,0.3745,6.156,7.6288,0.3944,0.4624,0.6202,-0.4038,-0.1804,0.0659,275.73,15.63,-22.25,-23.48,262.33,-40.33,-2.04,2,1015.23,39.67,30.453497,-84.31869,57.44,NaN,,0,58.7871,,19-Sep,9903,2018-04-20 21:51:31:538,,,
0.0482,5.3982,7.7139,0.2929,5.9734,7.7761,0.5429,-0.0107,0.8208,-0.3547,0.296,0.1765,142.619,16.59,-22.46,-22.91,257.84,-37.51,-2.16,2,1015.25,39.67,30.453497,-84.31869,57.44,NaN,,0,58.7871,,19-Sep,10004,2018-04-20 21:51:31:639,,,
-0.452,6.1326,7.0554,0.2265,5.884,7.8462,-0.1676,-0.8753,-0.3986,-0.0826,0.234,0.3593,68.668,16.26,-22.8,-22.67,254.18,-37.15,-1.55,2,1015.25,39.67,30.453497,-84.31869,57.44,NaN,,0,58.7871,,19-Sep,10103,2018-04-20 21:51:31:738,,,
0.349,6.7454,8.3436,0.3535,6.1319,7.6492,-0.0456,-2.1315,0.4492,0.089,-0.2579,-0.1492,55.991,15.53,-22.78,-21.97,254.06,-38.28,-2.14,2,1015.25,38.736,30.453497,-84.31869,57.44,NaN,,0,58.7871,,19-Sep,10204,2018-04-20 21:51:31:839,,,
0.4338,6.8598,9.7374,0.165,6.1324,7.6552,0.3216,-0.8003,-0.4581,-0.0048,0.1728,-0.2738,49.653,16.24,-22.67,-21.18,252.95,-38.69,-1.23,2,1015.25,38.736,30.453497,-84.31869,57.44,NaN,,0,58.7871,,19-Sep,10304,2018-04-20 21:51:31:939,,,
-0.261,6.3469,8.0653,0.119,6.0161,7.7478,-0.8977,2.1412,-2.6151,-0.1714,-0.4164,-0.4686,46.483,16.37,-20.51,-22.61,260.85,-37.83,-0.88,2,1015.26,38.736,30.453497,-84.31869,57.44,NaN,,0,58.7871,,19-Sep,10404,2018-04-20 21:51:32:039,,,
-0.2025,5.4403,7.2521,-0.0144,6.3134,7.5085,-0.4517,0.0521,0.8275,0.6355,0.1161,-0.2007,42.258,16.41,-21.85,-21.93,260.53,-40.06,0.11,2,1015.26,37.969,30.453497,-84.31869,57.44,NaN,,0,58.7871,,19-Sep,10504,2018-04-20 21:51:32:139,,,
0.5149,6.4155,6.632,0.0735,6.3794,7.4521,-1.0204,0.705,0.2992,-0.2882,0.0533,-0.1999,36.975,17.17,-21.95,-21.46,260.98,-41.6,-1.32,2,1015.26,37.969,30.453497,-84.31869,57.44,NaN,,0,58.7871,,19-Sep,10603,2018-04-20 21:51:32:238,,,
-0.064,5.545,6.2566,-0.0087,6.3814,7.4508,-0.3021,-0.0507,1.6226,0.0685,-0.1783,0.007,35.919,18.06,-20.41,-21.25,265.18,-40.58,0.07,2,1015.26,37.969,30.453497,-84.31869,57.44,NaN,,0,58.7871,,19-Sep,10704,2018-04-20 21:51:32:339,,,
0.4708,6.7261,6.8707,0.0084,6.3154,7.5068,-0.1787,-0.9542,-0.3351,-0.2286,0.2199,0.069,35.919,17.06,-21.69,-21.14,260.08,-40.88,-0.62,2,1015.26,37.969,30.453497,-84.31869,57.44,NaN,,0,58.7871,,19-Sep,10803,2018-04-20 21:51:32:438,,,
0.0673,7.2125,7.9754,-0.0065,6.5368,7.3148,-0.204,-0.5234,-0.7199,0.5024,-0.0368,0.2353,35.919,17.77,-21.89,-20.27,257.77,-39.96,0.92,2,1015.26,39.873,30.453497,-84.31869,57.44,NaN,,0,58.7871,,19-Sep,10904,2018-04-20 21:51:32:539,,,
-0.5344,8.1131,7.071,-0.0241,6.5373,7.3143,0.2398,-0.7512,-0.9041,-0.0116,0.2064,0.1926,35.919,16.85,-22.65,-20.92,259.57,-41.79,0.19,2,1015.27,39.873,30.453497,-84.31869,57.44,NaN,,0,58.7871,,19-Sep,11004,2018-04-20 21:51:32:639,,,
0.5388,5.9965,9.6894,-0.0991,6.3466,7.4797,0.8398,0.8176,0.5525,0.1983,0.3228,0.1517,35.919,16.09,-21.86,-19.94,256.76,-40.31,0.76,2,1015.27,39.873,30.453497,-84.31869,57.44,NaN,,0,58.7871,,19-Sep,11104,2018-04-20 21:51:32:739,,,
-0.5152,6.0784,7.462,0.0689,6.3873,7.4454,0.1553,1.452,-0.1962,0.0906,-0.1829,0.2121,35.919,16.22,-21.46,-19.78,259.45,-40.62,-0.53,2,1015.26,54.054,30.453497,-84.31869,57.44,NaN,,0,58.7871,,19-Sep,11203,2018-04-20 21:51:32:838,,,
-0.1762,4.8395,7.8087,0.1239,6.5159,7.3324,-0.0871,0.7341,1.3028,0.3751,-0.1372,0.1197,35.919,15.59,-23.03,-18.7,251.76,-40.27,-0.1,2,1015.26,54.054,30.453497,-84.31869,57.44,NaN,,0,58.7871,,19-Sep,11304,2018-04-20 21:51:32:939,,,
0.0267,6.3228,6.211,0.0359,6.6367,7.2242,-0.0174,0.2848,-0.0984,6.00E-04,0.0706,-0.1792,35.919,14.87,-22.79,-18.91,254.41,-42.57,-1.14,2,1015.26,54.054,30.453497,-84.31869,57.44,NaN,,0,58.7871,,19-Sep,11404,2018-04-20 21:51:33:039,,,
-0.1786,6.6346,7.7931,-0.0066,6.6966,7.1688,0.0393,-0.7491,-1.4711,0.1222,-0.0183,-0.1072,38.032,14.26,-22.11,-17.94,254.87,-43.05,0.05,2,1015.27,55.582,30.453497,-84.31869,57.44,NaN,,0,58.7871,,19-Sep,11504,2018-04-20 21:51:33:139,,,
-0.144,7.4425,8.9541,-0.1216,6.6535,7.2078,0.3093,-1.1945,-0.5758,-0.0101,0.2836,-0.0554,38.032,15.1,-22.71,-18.4,252.54,-42.7,-0.27,2,1015.26,55.582,30.453497,-84.31869,57.44,NaN,,0,58.7871,,19-Sep,11603,2018-04-20 21:51:33:238,,,
-0.2693,7.7411,6.3969,-0.1392,6.0789,7.6983,-1.115,2.4584,-4.0923,-1.2075,-0.2679,-0.3697,38.032,14.87,-19.5,-20.06,260.87,-38.29,1.04,2,1015.26,55.582,30.453497,-84.31869,57.44,NaN,,0,58.7871,,19-Sep,11704,2018-04-20 21:51:33:339,,,
-0.5415,5.9785,6.2074,-0.2537,6.2476,7.559,-0.4244,0.4963,0.4312,0.3798,-0.5019,-0.2408,38.032,15.86,-19.29,-19.98,264.12,-39.56,1.92,2,1015.26,51.785,30.453497,-84.31869,57.44,NaN,,0,58.7871,,19-Sep,11804,2018-04-20 21:51:33:439,,,
0.4911,5.3837,7.9418,-0.4059,6.2531,7.5479,0.2231,0.8986,1.2831,-0.014,0.3087,-0.1994,38.032,15.48,-17.99,-20.12,266.63,-39.69,1.37,2,1015.26,51.785,30.453497,-84.31869,57.44,NaN,,0,58.7871,,19-Sep,11904,2018-04-20 21:51:33:539,,,
-0.4257,5.8027,6.6944,-0.415,6.2575,7.5437,-0.2942,-0.0063,0.8162,0.0022,0.0477,0.0339,38.032,16.47,-17.74,-19.73,267.83,-39.63,3.15,2,1015.25,51.785,30.453497,-84.31869,57.44,NaN,,0,58.7871,,19-Sep,12004,2018-04-20 21:51:33:639,,,
0.121,6.3914,8.1205,-0.545,6.3502,7.4575,-0.0132,-0.683,-0.1329,0.2503,0.4261,0.2775,38.032,15.89,-17.56,-19.59,267.49,-39.36,3.44,2,1015.26,51.785,30.453497,-84.31869,57.44,NaN,,0,58.7871,,19-Sep,12104,2018-04-20 21:51:33:739,,,
-0.5892,6.9272,7.7655,-0.3812,6.5706,7.2745,0.2675,-1.0205,0.3784,0.4522,-0.0708,0.311,52.822,15.7,-18.66,-17.52,264.27,-42.05,3,2,1015.26,39.833,30.453497,-84.31869,57.44,NaN,,0,58.7871,,19-Sep,12204,2018-04-20 21:51:33:839,,,
-1.2494,7.6604,6.6416,-0.1557,6.3211,7.5004,0.0337,1.8163,-2.2104,-0.6584,-0.3975,0.148,52.822,15.39,-18.99,-17.89,264.59,-42.46,3.19,2,1015.26,39.833,30.453497,-84.31869,57.44,NaN,,0,58.7871,,19-Sep,12303,2018-04-20 21:51:33:938,,,
0.4206,4.7372,10.6717,-0.3172,6.1542,7.6329,0.7666,0.4209,0.2862,-0.3249,0.469,0.1689,52.822,15.74,-17.4,-19.79,268.92,-38.85,2.38,2,1015.26,39.833,30.453497,-84.31869,57.44,NaN,,0,58.7871,,0 / 19,12403,2018-04-20 21:51:34:038,,,
-0.1058,5.3801,8.2704,-0.1206,5.9072,7.8311,0.0176,1.3834,0.1853,-0.3173,0.0178,0.0672,52.822,14.71,-17.7,-20.27,261.52,-37.02,0.88,2,1015.26,39.851,30.453497,-84.31869,57.44,NaN,,0,58.7871,,0 / 19,12503,2018-04-20 21:51:34:138,,,
-0.4735,4.5048,7.1994,-0.1537,5.9221,7.8193,0.4011,0.0551,0.9265,0.1337,-0.0761,0.026,52.822,14.97,-17.31,-19.85,264.13,-36.63,1.43,2,1015.26,39.851,30.453497,-84.31869,57.44,NaN,,0,58.7871,,0 / 19,12604,2018-04-20 21:51:34:239,,,
-0.3887,5.5788,8.1673,-0.0591,5.98,7.7764,0.17,0.0648,-0.2921,0.121,-0.2281,-0.0415,52.822,15.51,-16.9,-21.62,270.03,-37.56,0.44,2,1015.26,39.851,30.453497,-84.31869,57.44,NaN,,0,58.7871,,0 / 19,12704,2018-04-20 21:51:34:339,,,
-0.2992,6.7827,7.7511,0.2018,6.1816,7.6146,0.3173,-0.2532,-1.5517,0.0141,-0.199,-0.1617,52.822,14.76,-17.32,-21.59,271.57,-39.01,-1.28,2,1015.26,39.063,30.453497,-84.31869,57.44,NaN,,0,58.7871,,0 / 19,12803,2018-04-20 21:51:34:438,,,
-0.4389,6.6322,8.1493,0.2388,5.983,7.7706,-0.9538,1.7382,-2.7176,-0.4126,-0.1502,-0.0811,70.781,15.45,-16.86,-24.02,273.19,-37.58,-1.76,2,1015.26,39.063,30.453497,-84.31869,57.44,NaN,,0,58.7871,,0 / 19,12904,2018-04-20 21:51:34:539,,,
0.9411,3.4887,10.8469,0.3152,5.7527,7.9399,-0.4062,0.0444,0.3388,0.2413,-0.0212,-0.0511,70.781,16.43,-16.36,-23.48,269.15,-35.09,-2.3,2,1015.26,39.063,30.453497,-84.31869,57.44,NaN,,0,58.7871,,0 / 19,13004,2018-04-20 21:51:34:639,,,
0.4863,5.58,7.582,0.3834,5.7389,7.947,-0.8123,0.3918,-0.1236,-0.246,0.0967,-0.2746,70.781,15.92,-16.36,-24.87,274.61,-36.66,-3.83,2,1015.26,51.688,30.453497,-84.31869,57.44,NaN,,0,58.7871,,0 / 19,13104,2018-04-20 21:51:34:739,,,
0.3633,4.8925,7.3313,0.2954,5.7261,7.9599,-0.118,0.3646,1.2958,-0.0307,0.0762,-0.1418,70.781,17.12,-16.42,-24.9,273.91,-35.71,-2.13,2,1015.26,51.688,30.453497,-84.31869,57.44,NaN,,0,58.7871,,0 / 19,13203,2018-04-20 21:51:34:838,,,
0.3514,5.3344,6.7735,0.2944,5.6819,7.9916,-0.072,-0.2214,-0.7134,-0.0037,0.0813,0.0896,70.781,18.14,-16.98,-25.2,270.7,-35.42,-2.14,2,1015.26,51.688,30.453497,-84.31869,57.44,NaN,,0,58.7871,,0 / 19,13304,2018-04-20 21:51:34:939,,,
-7.00E-04,6.123,8.1805,0.1992,5.8223,7.8929,0.0053,-0.8549,0.5734,0.279,0.3639,0.2426,70.781,17.47,-16.69,-25.51,274.82,-36.41,-1.45,2,1015.26,51.688,30.453497,-84.31869,57.44,NaN,,0,58.7871,,0 / 19,13404,2018-04-20 21:51:35:039,,,
0.8874,6.5973,8.1493,0.2405,5.9726,7.7786,-0.533,-0.604,-0.7908,0.0393,0.194,-0.0092,70.781,18.24,-17.88,-23.33,268.1,-37.5,-1.77,2,1015.27,57.489,30.453497,-84.31869,57.44,NaN,,0,58.7871,,0 / 19,13503,2018-04-20 21:51:35:138,,,
0.1687,6.2722,8.394,0.2321,5.7576,7.9393,-0.711,1.9262,-2.0081,-0.2516,0.0489,0.0122,452.155,17.61,-18.4,-24.43,269.09,-36.97,-1.81,2,1015.27,57.489,30.453497,-84.31869,57.44,NaN,,0,58.7871,,0 / 19,13603,2018-04-20 21:51:35:238,,,
0.2774,3.3851,9.3583,0.1602,5.8203,7.8952,0.2882,0.3749,0.1614,0.1405,0.4197,0.3905,521.88,18.06,-17.76,-24.04,267.54,-35.94,-1.67,2,1015.27,57.489,30.453497,-84.31869,57.44,NaN,,0,58.7871,,0 / 19,13704,2018-04-20 21:51:35:339,,,
-0.3851,5.2477,6.6476,0.5066,5.5665,8.0618,-0.2831,1.0243,-1.0121,-0.3826,-0.1101,0.0788,521.88,16.98,-18.27,-24.02,266.89,-36.03,-3.05,2,1015.26,55.658,30.453497,-84.31869,57.44,NaN,,0,58.7871,,0 / 19,13804,2018-04-20 21:51:35:439,,,
0.4194,4.5168,8.5895,0.4637,5.5738,8.0594,0.0791,0.5368,-0.0916,0.0313,0.076,-0.0105,462.72,17.44,-18.53,-25.25,263.77,-34.62,-3.29,2,1015.26,55.658,30.453497,-84.31869,57.44,NaN,,0,58.7871,,0 / 19,13904,2018-04-20 21:51:35:539,,,
0.3263,5.0213,8.2525,0.2699,5.7599,7.9364,0.3045,-0.1184,0.3548,0.2508,0.0775,-0.239,361.302,18.31,-18.29,-23.44,265.63,-35.95,-1.95,2,1015.27,55.658,30.453497,-84.31869,57.44,NaN,,0,58.7871,,0 / 19,14004,2018-04-20 21:51:35:639,,,
-0.3016,6.3288,7.7007,0.0401,5.8915,7.8438,0.4542,-1.0079,0.7556,0.2492,0.2233,-0.3141,260.94,19.43,-18.42,-21.89,266.29,-36.91,-0.29,2,1015.26,54.38,30.453497,-84.31869,57.44,NaN,,0,58.7871,,0 / 19,14104,2018-04-20 21:51:35:739,,,
-0.4794,6.0965,8.3772,-0.4641,5.4933,8.1144,0.0985,-0.4028,-1.3357,-0.3185,0.0148,-0.4556,212.344,21.77,-16.47,-23.03,270.85,-34.05,3.27,2,1015.26,54.38,30.453497,-84.31869,57.44,NaN,,0,58.7871,,0 / 19,14204,2018-04-20 21:51:35:839,,,
0.1329,5.1068,9.6318,-0.7062,5.4583,8.1206,-0.8818,1.6049,-0.985,0.1194,0.0563,-0.3447,186.989,23.18,-14.92,-22.3,272.29,-33.81,4.97,2,1015.26,54.38,30.453497,-84.31869,57.44,NaN,,0,58.7871,,0 / 19,14304,2018-04-20 21:51:35:939,,,
0.164,3.774,9.254,-0.7783,5.6571,7.9767,-0.3205,0.7202,0.0688,0.4233,0.0096,-0.2036,173.256,23.05,-15.38,-21.91,272.29,-33.81,4.97,2,1015.25,50.203,30.453497,-84.31869,57.44,NaN,,0,58.7871,,0 / 19,14404,2018-04-20 21:51:36:039,,,
-0.5403,4.6794,8.3652,-1.013,5.1862,8.2652,-0.4916,1.0943,-0.5246,-0.6108,0.1578,-0.2912,173.256,22.85,-13.94,-21.78,275.78,-34.27,5.92,2,1015.25,50.203,30.453497,-84.31869,57.44,NaN,,0,58.7871,,0 / 19,14503,2018-04-20 21:51:36:138,,,
-0.7433,4.1906,9.0153,-1.0614,5.129,8.2947,-0.8464,0.5914,0.8859,-0.1053,0.1529,0.0875,173.256,23.72,-13.12,-21.08,273.79,-31.52,7.29,2,1015.25,50.203,30.453497,-84.31869,57.44,NaN,,0,58.7871,,0 / 19,14603,2018-04-20 21:51:36:238,,,
1.0736,4.5602,7.2365,0.5458,5.5782,8.0512,-1.1739,1.8519,3.1614,0.6248,-1.8835,0.7098,154.24,19.46,-16,-22.85,267.64,-34.65,-3.88,2,1015.26,50.203,30.453497,-84.31869,57.44,NaN,,0,58.7871,,0 / 19,14703,2018-04-20 21:51:36:338,,,
1.9188,2.7783,5.0751,6.3744,6.2623,4.0481,1.9863,5.9696,1.1755,3.2782,-6.4543,3.1038,125.716,11.47,-18.86,-24.55,260.97,-37.97,-21.07,2,1015.24,46.561,30.453497,-84.31869,57.44,NaN,,0,58.7871,,0 / 19,14803,2018-04-20 21:51:36:438,,,
5.0797,-1.7281,0.2654,8.8959,4.0516,-0.8263,2.7506,6.5743,-0.1929,4.8128,-6.6317,5.2611,125.716,-19.08,-28.02,-7.7,208.39,-24.39,-95.31,2,1015.25,46.561,30.453497,-84.31869,57.44,NaN,,0,58.7871,,0 / 19,14904,2018-04-20 21:51:36:539,,,
9.0549,-1.3525,-2.6229,8.3847,-2.334,-4.5261,-7.7397,-5.1331,-1.6482,2.0044,-1.5525,3.2619,125.716,-36.69,-16.33,23.5,172.24,13.76,-118.36,2,1015.24,46.561,30.453497,-84.31869,57.44,NaN,,0,58.7871,,0 / 19,15004,2018-04-20 21:51:36:639,,,
16.1194,3.0625,-2.8088,8.1425,-2.8932,-4.6438,-7.758,2.1304,1.1275,0.6048,-0.4386,0.7772,125.716,-40.8,-13.46,26.4,175.14,17.15,-119.7,0,1015.24,43.122,30.453497,-84.31869,57.44,NaN,,0,58.7871,,0 / 19,15104,2018-04-20 21:51:36:739,,,
13.8131,-6.0239,-9.2702,7.3548,-3.4955,-5.4703,1.3597,4.9276,7.5504,-1.0076,0.9165,0.562,125.716,-38.32,-7.41,34.96,170.92,21.39,-128.16,0,1015.24,43.122,30.453497,-84.31869,57.44,NaN,,0,58.7871,,0 / 19,15204,2018-04-20 21:51:36:839,,,
6.6722,-7.1376,-8.3586,7.1794,-3.2109,-5.8637,-2.3534,-0.6085,-4.1233,-0.6467,0.8085,0.6676,125.716,-42.61,-10.49,28.84,190.2,19.11,-129.24,0,1015.28,43.122,30.453497,-84.31869,57.44,NaN,,0,58.7871,,0 / 19,15304,2018-04-20 21:51:36:939,,,
7.9101,-2.6251,-5.8206,8.1666,-2.7702,-4.6764,2.0092,-0.4562,1.588,-2.2571,2.7791,0.4842,125.716,-46.49,-9.42,14.14,206.09,16.4,-119.8,0,1015.28,43.292,30.453497,-84.31869,57.44,NaN,,0,58.7871,,0 / 19,15404,2018-04-20 21:51:37:039,,,
7.7776,-2.4577,-6.3759,8.4369,-2.4332,-4.3744,-1.342,-1.0064,-1.9341,-0.446,0.2707,-0.3268,6.339,-47.81,-8.71,11.69,208.82,16.21,-118.22,0,1015.28,43.292,30.453497,-84.31869,57.44,NaN,,0,58.7871,,0 / 19,15504,2018-04-20 21:51:37:139,,,
8.15,-1.692,-2.1755,8.8036,-2.2561,-3.6936,1.3748,-0.0819,0.6383,0.611,1.0588,-0.5972,6.339,-46.63,-9.65,8.58,205.74,13.3,-112.76,0,1015.29,43.292,30.453497,-84.31869,57.44,NaN,,0,58.7871,,0 / 19,15604,2018-04-20 21:51:37:239,,,
6.4597,-2.8755,-5.4656,9.0526,-2.3924,-2.9263,-1.0388,0.0426,0.0404,1.1279,-0.0074,-0.1426,6.339,-46.84,-9.86,6.78,200.25,14.12,-107.91,0,1015.29,47.293,30.453497,-84.31869,57.44,NaN,,0,58.7871,,0 / 19,15703,2018-04-20 21:51:37:338,,,
10.5399,-2.0652,-2.6817,9.1689,-2.3649,-2.5642,1.6927,-0.5004,0.1948,1.0291,0.3561,-0.3567,6.339,-45.83,-10.54,7.75,192.09,13.95,-105.62,0,1015.34,47.293,30.453497,-84.31869,57.44,NaN,,0,58.7871,,0 / 19,15804,2018-04-20 21:51:37:439,,,
6.6483,-2.418,-1.8121,9.3022,-2.758,-1.4486,0.6256,0.847,0.287,0.9741,0.8321,0.3525,6.339,-46.36,-10.31,7.8,186.18,14.33,-102.69,0,1015.34,47.293,30.453497,-84.31869,57.44,NaN,,0,58.7871,,0 / 19,15904,2018-04-20 21:51:37:539,,,
8.3756,-3.4739,-2.0232,9.1237,-3.4912,-0.8975,0.5106,-0.2616,0.1807,0.5083,0.2205,0.8241,6.339,-46.22,-8.51,6.41,178.92,17.69,-96.9,0,1015.37,47.293,30.453497,-84.31869,57.44,NaN,,0,58.7871,,0 / 19,16004,2018-04-20 21:51:37:639,,,
8.526,-2.9971,-0.8441,8.6457,-4.5608,-0.8296,-0.9063,-0.0809,-0.7727,0.6864,-0.1792,1.8462,6.339,-49.34,0.29,6.57,174.32,27.7,-95.48,0,1015.41,56.364,30.453497,-84.31869,57.44,NaN,,0,58.7871,,0 / 19,16104,2018-04-20 21:51:37:739,,,
9.3402,-4.7959,0.0747,7.4248,-6.3868,-0.5626,0.2683,0.5088,-1.2033,0.0962,-0.0633,1.6269,0.473,-50.58,5.41,6.97,172.36,34.74,-94.05,0,1015.35,56.364,30.453497,-84.31869,57.44,NaN,,0,58.7871,,0 / 19,16204,2018-04-20 21:51:37:839,,,
7.6212,-7.6806,0.991,7.063,-6.786,-0.5477,-0.3003,2.0233,0.0271,-0.3313,0.3196,0.8923,0.473,-51.13,11.99,6,175.65,43.77,-94.43,0,1015.35,56.364,30.453497,-84.31869,57.44,NaN,,0,58.7871,,0 / 19,16304,2018-04-20 21:51:37:939,,,
7.2165,-8.415,-1.0552,6.4428,-7.3833,-0.4621,1.5988,-1.451,-1.0944,-0.0797,0.0475,0.3715,0.473,-49.85,16.82,4.19,179.11,48.82,-94.1,0,1015.33,50.059,30.453497,-84.31869,57.44,NaN,,0,58.7871,,0 / 19,16404,2018-04-20 21:51:38:039,,,
8.0617,-9.0471,-1.499,6.1395,-7.647,0.2552,-0.7195,1.2342,0.3993,0.2208,0.6636,0.3868,0.473,-49.44,18.84,0.63,173.4,51.22,-87.62,0,1015.33,50.059,30.453497,-84.31869,57.44,NaN,,0,58.7871,,0 / 19,16504,2018-04-20 21:51:38:139,,,
6.8465,-8.8785,-0.0753,6.0294,-7.7344,0.2481,1.5993,-2.54,-0.4145,-0.2222,0.2546,0.2238,0.473,-49.01,19.77,-1.18,177.69,51.22,-87.62,0,1015.4,50.059,30.453497,-84.31869,57.44,NaN,,0,58.7871,,0 / 19,16604,2018-04-20 21:51:38:239,,,
6.5218,-7.8913,1.5248,5.8284,-7.8844,0.3204,-0.805,0.046,0.0983,0.0739,-0.1106,0.2594,0.473,-48.24,20.86,-1.4,176.39,52.58,-86.9,0,1015.41,54.767,30.453497,-84.31869,57.44,NaN,,0,58.7871,,0 / 19,16704,2018-04-20 21:51:38:339,,,
6.3654,-9.3782,1.111,5.6916,-7.9736,0.5142,0.3843,-2.8497,-0.2789,-0.0045,0.5414,0.2346,0.473,-48.45,21.8,-2.4,174.92,54.37,-84.84,0,1015.37,54.767,30.453497,-84.31869,57.44,NaN,,0,58.7871,,0 / 19,16804,2018-04-20 21:51:38:439,,,
5.1848,-5.2028,0.8963,5.5438,-8.0829,0.4112,2.2666,-3.5767,-1.4286,0.0546,-0.0833,0.1106,0.473,-48.17,22.04,-2.39,176.55,55.12,-85.69,0,1015.37,54.767,30.453497,-84.31869,57.44,NaN,,0,58.7871,,0 / 19,16904,2018-04-20 21:51:38:539,,,
5.7554,-1.7305,1.051,5.4347,-8.1661,0.1181,-3.5001,1.4039,-0.7178,-0.2881,0.7794,-0.0155,0.473,-47.88,23.53,0.1,179.76,56.52,-89.87,0,1015.28,47.893,30.453497,-84.31869,57.44,NaN,,0,58.7871,,0 / 19,17004,2018-04-20 21:51:38:639,,,
6.5385,-6.2743,-1.144,5.6634,-8.0091,0.124,-1.4398,2.5459,0.3884,-0.0258,0.0522,-0.4676,0.473,-49.06,22.96,-2.59,184.12,54.73,-88.75,0,1015.28,47.893,30.453497,-84.31869,57.44,NaN,,0,58.7871,,0 / 19,17103,2018-04-20 21:51:38:738,,,
4.6429,-7.7805,-0.1424,6.2868,-7.5306,-0.0471,1.1287,-0.7316,-0.1085,-0.0683,-0.2134,-0.5505,0.473,-49.53,19.8,-2.01,185.31,50.14,-90.43,0,1015.36,47.893,30.453497,-84.31869,57.44,NaN,,0,58.7871,,0 / 19,17204,2018-04-20 21:51:38:839,,,
5.0726,-6.8546,0.2318,6.3807,-7.4327,-0.5266,0.0103,-2.1381,-0.1134,-0.8397,-0.2125,-0.1919,0.473,-49.85,18.98,-0.6,191.42,49.26,-94.72,0,1015.48,47.893,30.453497,-84.31869,57.44,NaN,,0,58.7871,,0 / 19,17303,2018-04-20 21:51:38:938,,,
6.5349,-7.9936,-0.3835,6.4104,-7.3969,-0.6548,0.1829,-0.4824,0.3055,0.1376,0.0908,-0.1073,0.473,-49.25,19.36,-0.48,193.3,49.27,-96.78,0,1015.48,58.287,30.453497,-84.31869,57.44,NaN,,0,58.7871,,0 / 19,17404,2018-04-20 21:51:39:039,,,
5.901,-7.2832,-0.4807,6.387,-7.4271,-0.5298,-1.5612,2.3486,1.0542,0.5324,-0.3074,0.0138,0.473,-50.44,18.95,0.2,189.27,49.21,-94.74,0,1015.56,58.287,30.453497,-84.31869,57.44,NaN,,0,58.7871,,0 / 19,17504,2018-04-20 21:51:39:139,,,
6.0216,-8.5667,-0.4543,6.2131,-7.5282,-0.9796,-0.3895,0.0711,-0.2393,-0.5395,-0.3775,-0.0053,0.473,-50.07,19.23,0.78,187.82,50.35,-95.28,0,1015.78,58.287,30.453497,-84.31869,57.44,NaN,,0,58.7871,,0 / 19,17604,2018-04-20 21:51:39:239,,,
6.1935,-7.0136,-1.2519,6.1098,-7.6247,-0.8775,-0.1724,-0.9509,1.0357,0.1855,-0.2049,0.3756,0.473,-50.31,19.03,1.18,193.16,49.61,-97.99,0,1015.78,54.793,30.453497,-84.31869,57.44,NaN,,0,58.7871,,0 / 19,17703,2018-04-20 21:51:39:338,,,
6.1243,-8.0369,-0.9557,6.1102,-7.6168,-0.941,-0.1014,0.2169,0.0854,-0.1191,-0.013,-0.0019,0.473,-50.03,19.23,0.78,194.02,50.94,-98.76,0,1015.6,54.793,30.453497,-84.31869,57.44,NaN,,0,58.7871,,0 / 19,17804,2018-04-20 21:51:39:439,,,
5.8055,-7.9527,-0.8573,6.1226,-7.571,-1.196,0.2523,0.0137,-0.0267,-0.3745,0.1053,0.0072,0.473,-50.47,19.65,1.04,198.78,50.51,-101.05,0,1015.54,54.793,30.453497,-84.31869,57.44,NaN,,0,58.7871,,0 / 19,17904,2018-04-20 21:51:39:539,,,
5.8103,-7.6204,-1.0468,6.1561,-7.5286,-1.2878,-0.0958,-0.1063,0.1031,-0.3603,0.2038,-0.0371,0.473,-50.71,20.19,-0.03,202.28,50.12,-101.82,0,1015.54,49.837,30.453497,-84.31869,57.44,NaN,,0,58.7871,,0 / 19,18004,2018-04-20 21:51:39:639,,,
6.1708,-7.4205,-1.4846,6.2359,-7.4168,-1.53,-0.253,0.1308,-0.1064,-0.3089,0.0688,-0.0687,0.473,-50.31,19.56,0.07,206.76,49.12,-103.79,0,1015.51,49.837,30.453497,-84.31869,57.44,NaN,,0,58.7871,,0 / 19,18104,2018-04-20 21:51:39:739,,,
6.221,-7.1352,-1.1584,6.2639,-7.3879,-1.5555,0.0425,0.3388,-0.4419,-0.2319,0.2475,0.0454,0.473,-49.87,19.97,-1.55,211.17,48.89,-103.89,0,1015.48,49.837,30.453497,-84.31869,57.44,NaN,,0,58.7871,,0 / 19,18204,2018-04-20 21:51:39:839,,,
6.0861,-7.7709,-1.0948,6.2604,-7.3889,-1.5646,0.0207,0.187,-0.1112,-0.2998,0.3224,0.072,0.473,-50.47,19.49,-1.62,210.58,48.86,-103.95,0,1015.48,49.837,30.453497,-84.31869,57.44,NaN,,0,58.7871,,0 / 19,18304,2018-04-20 21:51:39:939,,,
6.184,-7.6095,-1.3263,6.2488,-7.4088,-1.5158,-0.2901,-0.128,0.1308,-0.2695,0.355,0.1048,0.473,-49.93,21.44,-4.32,215.46,48.93,-103.72,0,1015.47,55.618,30.453497,-84.31869,57.44,NaN,,0,58.7871,,0 / 19,18404,2018-04-20 21:51:40:039,,,
6.5671,-7.0364,-1.5902,6.2205,-7.4344,-1.5072,-0.3451,-0.2298,0.1551,-0.1288,0.1804,0.1038,0.473,-50.18,22.19,-5.58,219.44,49.27,-103.62,0,1015.47,55.618,30.453497,-84.31869,57.44,NaN,,0,58.7871,,0 / 19,18503,2018-04-20 21:51:40:138,,,
6.5779,-7.2748,-1.4043,6.1096,-7.5333,-1.4691,0.0038,-0.0792,-0.0306,0.0097,0.0625,0.1189,0.473,-49.01,22.63,-5.04,217.91,50.17,-103.52,0,1015.48,55.618,30.453497,-84.31869,57.44,NaN,,0,58.7871,,0 / 19,18603,2018-04-20 21:51:40:238,,,
6.1756,-7.7528,-1.2351,6.0925,-7.5512,-1.4481,-0.0128,0.0912,-0.0745,-0.0096,0.0648,0.0488,0.473,-48.89,23.45,-5.43,217.48,50.33,-103.37,0,1015.46,37.51,30.453497,-84.31869,57.44,NaN,,0,58.7871,,0 / 19,18704,2018-04-20 21:51:40:339,,,
6.0479,-7.6685,-1.2915,6.1273,-7.5012,-1.5568,0.0942,-0.1184,-0.243,-0.1152,-0.0356,-0.0755,0.473,-48.83,23.36,-6.25,221.29,49.88,-104.26,0,1015.43,37.51,30.453497,-84.31869,57.44,NaN,,0,58.7871,,0 / 19,18804,2018-04-20 21:51:40:439,,,
6.0383,-7.4458,-1.3359,6.2114,-7.4202,-1.6111,-0.317,0.0301,-0.312,-0.1239,0.0968,-0.0613,0.473,-48.93,23.41,-6.04,222.11,49.48,-104.48,0,1015.43,37.51,30.453497,-84.31869,57.44,NaN,,0,58.7871,,0 / 19,18904,2018-04-20 21:51:40:539,,,
6.5289,-7.5517,-1.0348,6.2027,-7.4228,-1.6322,-0.1904,-0.0167,-0.4099,-0.1517,0.1183,0.0449,0.473,-48.34,23.14,-6.76,225.09,49.15,-104.54,0,1015.38,37.218,30.453497,-84.31869,57.44,NaN,,0,58.7871,,0 / 19,19004,2018-04-20 21:51:40:639,,,
6.1517,-7.7396,-1.2411,6.1248,-7.4675,-1.7204,-0.0515,0.2616,-0.3422,-0.3401,0.2802,0.1726,0.473,-48.04,24.09,-6.37,225.09,49.29,-105.15,0,1015.38,37.218,30.453497,-84.31869,57.44,NaN,,0,58.7871,,0 / 19,19104,2018-04-20 21:51:40:739,,,
6.141,-7.5409,-0.9917,6.0681,-7.5039,-1.7624,-0.0382,0.435,-0.7331,-0.3593,0.3138,0.1947,0.473,-46.42,25.54,-6.41,229.71,49.9,-106.2,0,1015.36,37.218,30.453497,-84.31869,57.44,NaN,,0,58.7871,,0 / 19,19204,2018-04-20 21:51:40:839,,,
5.9404,-7.949,-0.8753,6.0474,-7.4353,-2.0931,0.1387,0.3854,-1.647,-0.8615,0.4996,0.062,0.473,-45.5,28.12,-7.3,239.13,49.28,-109.09,0,1015.34,38.179,30.453497,-84.31869,57.44,NaN,,0,58.7871,,0 / 19,19303,2018-04-20 21:51:40:938,,,
6.8286,-7.3531,-0.9437,6.1275,-7.2582,-2.4513,1.0508,0.1641,-0.4108,-1.082,0.7772,0.2092,0.473,-44.32,28.26,-6.67,244.46,48.38,-110.31,0,1015.27,38.179,30.453497,-84.31869,57.44,NaN,,0,58.7871,,0 / 19,19403,2018-04-20 21:51:41:038,,,
5.186,-7.9057,-1.6178,6.1273,-7.2279,-2.5397,-1.1925,0.8622,-0.1449,-1.1375,1.1117,0.3835,0.473,-42.45,31.25,-7.99,257.11,47.46,-112.51,0,1015.27,38.179,30.453497,-84.31869,57.44,NaN,,0,58.7871,,0 / 19,19504,2018-04-20 21:51:41:139,,,
5.5405,-8.7617,-2.0855,5.4483,-7.6901,-2.723,-0.3353,-0.9453,0.0704,-1.079,1.4083,1.3966,0.473,-37.54,36.85,-8.69,268.81,51.62,-116.56,0,1015.12,55.494,30.453497,-84.31869,57.44,NaN,,0,58.7871,,0 / 19,19603,2018-04-20 21:51:41:238,,,
6.215,-5.8505,-2.3158,5.2514,-7.8419,-2.6764,-0.5472,-0.2421,0.7372,-1.198,1.8925,1.0995,0.473,-30.38,42.44,-9.39,288.25,53.07,-117.01,0,1015.12,55.494,30.453497,-84.31869,57.44,NaN,,0,58.7871,,0 / 19,19704,2018-04-20 21:51:41:339,,,
6.6256,-7.6541,-3.225,5.141,-7.8917,-2.7436,-1.5757,-0.8168,0.2793,-1.5256,1.9878,0.7959,0.473,-27.62,45,-8.52,295.47,53.63,-116.86,0,1015.02,55.494,30.453497,-84.31869,57.44,NaN,,0,58.7871,,0 / 19,19804,2018-04-20 21:51:41:439,,,
5.5429,-7.2254,-2.3086,5.09,-7.9747,-2.5947,-0.1082,-0.8153,0.0964,-1.1201,2.0247,0.7003,0.473,-20.73,49.39,-7.07,315.67,54.06,-117.73,0,1015.08,55.494,30.453497,-84.31869,57.44,NaN,,0,58.7871,,0 / 19,19903,2018-04-20 21:51:41:538,,,
5.7972,-6.6006,-2.7956,5.1548,-7.9924,-2.4051,-0.8947,-0.7561,1.7438,-0.8573,1.9503,0.5012,0.473,-16.2,51.3,-5.51,328.39,54.56,-115.01,0,1015.08,53.57,30.453497,-84.31869,57.44,NaN,,0,58.7871,,0 / 19,20003,2018-04-20 21:51:41:638,,,
6.1398,-7.4602,-4.2829,5.515,-7.7398,-2.4322,0.3026,-0.9521,0.0177,-0.6378,0.7723,-0.119,0.473,-15.25,52.04,-3.69,335.32,53.49,-114.02,0,1015.22,53.57,30.453497,-84.31869,57.44,NaN,,0,58.7871,,0 / 19,20104,2018-04-20 21:51:41:739,,,
4.5056,-8.1621,-1.9248,5.5875,-7.7302,-2.2932,0.5803,0.7203,-0.422,-0.1799,0.6417,0.0367,0.473,-14.42,52.76,-3.35,340.87,52,-112.31,0,1015.28,53.57,30.453497,-84.31869,57.44,NaN,,0,58.7871,,0 / 19,20204,2018-04-20 21:51:41:839,,,
5.3925,-9.2999,-1.547,5.8026,-7.6497,-2.012,-0.7227,-0.3542,-0.5658,-0.7886,1.3956,0.1488,0.473,-12.58,52.44,-1.49,347.38,51.24,-109.12,0,1015.28,53.667,30.453497,-84.31869,57.44,NaN,,0,58.7871,,0 / 19,20304,2018-04-20 21:51:41:939,,,
8.2694,-7.2351,-0.9077,5.8939,-7.5965,-1.9472,-0.2922,-0.312,-0.9282,-0.5528,0.8766,0.0674,0.473,-12.17,53.57,0.43,351.55,50.75,-108.28,0,1015.42,53.667,30.453497,-84.31869,57.44,NaN,,0,58.7871,,0 / 19,20403,2018-04-20 21:51:42:038,,,
5.9858,-7.1255,-0.8561,6.2411,-7.3423,-1.8371,-0.7387,0.416,-0.2881,-0.7718,1.1592,-0.0562,0.473,-12.58,54.09,1.56,355.38,49.46,-107.65,0,1015.42,53.667,30.453497,-84.31869,57.44,NaN,,0,58.7871,,0 / 19,20504,2018-04-20 21:51:42:139,,,
7.577,-6.5308,-1.6249,6.294,-7.36,-1.5659,-1.359,-1.2997,-0.009,-0.5677,0.9483,0.26,0.473,-11.47,54.05,3.62,2.18,48.3,-104.9,0,1015.43,57.182,30.453497,-84.31869,57.44,NaN,,0,58.7871,,0 / 19,20604,2018-04-20 21:51:42:239,,,
7.2667,-6.0745,-2.3086,6.2801,-7.3893,-1.4812,-0.6454,-1.0624,1.0431,-0.2205,0.5031,0.1595,0.473,-10.92,54.1,5.42,5.03,48.87,-103.27,0,1015.5,57.182,30.453497,-84.31869,57.44,NaN,,0,58.7871,,0 / 19,20704,2018-04-20 21:51:42:339,,,
6.8035,-6.8727,-2.2954,6.1507,-7.5331,-1.2873,-0.6036,-0.663,0.53,0.2,-0.0033,0.1895,0.473,-9.88,54.05,5.85,7.89,49.4,-102.42,0,1015.5,57.182,30.453497,-84.31869,57.44,NaN,,0,58.7871,,0 / 19,20803,2018-04-20 21:51:42:438,,,
6.3797,-7.2315,-1.4414,6.0726,-7.6142,-1.1762,-0.0642,-0.1562,0.5186,0.1794,0.0751,0.1819,0.473,-9.7,53.44,4.87,6.84,50.91,-100.96,0,1015.5,50.65,30.453497,-84.31869,57.44,NaN,,0,58.7871,,0 / 19,20903,2018-04-20 21:51:42:538,,,
6.0371,-6.9245,-1.6897,6.0151,-7.701,-0.8656,-1.1707,-1.301,1.1134,0.0049,0.5351,0.142,0.473,-9.06,54.75,3.53,5.74,51.72,-98.19,0,1015.49,50.65,30.453497,-84.31869,57.44,NaN,,0,58.7871,,0 / 19,21004,2018-04-20 21:51:42:639,,,
7.9328,-6.6126,-1.096,5.9781,-7.7681,-0.3928,-1.7471,0.3577,-0.1963,0.3841,0.0659,-0.0653,0.473,-8,55.94,3.12,5.09,52.36,-93.76,0,1015.49,50.65,30.453497,-84.31869,57.44,NaN,,0,58.7871,,0 / 19,21103,2018-04-20 21:51:42:738,,,
7.651,-8.1682,-0.1328,5.8984,-7.8248,-0.4664,-0.9733,0.0802,-0.1366,-0.0892,-0.0714,0.1633,0.473,-8.26,54.43,1.6,3.17,52.36,-93.76,0,1015.39,50.65,30.453497,-84.31869,57.44,NaN,,0,58.7871,,0 / 19,21204,2018-04-20 21:51:42:839,,,
5.9225,-7.2905,0.3685,5.7161,-7.7641,-1.8115,1.9059,-0.6102,-1.6093,-0.89,-1.1153,-0.0377,0.473,-7.65,54.76,5.44,7.88,53.14,-99.57,0,1015.21,53.425,30.453497,-84.31869,57.44,NaN,,0,58.7871,,0 / 19,21303,2018-04-20 21:51:42:938,,,
4.8816,-10.0536,-1.9044,5.6445,-7.5631,-2.6786,-0.6723,-0.4058,-0.2563,-1.1837,-0.8296,-0.1065,0.473,-7.59,54.99,10.45,12.1,50.44,-115.39,0,1015.09,53.425,30.453497,-84.31869,57.44,NaN,,0,58.7871,,19-Aug,21404,2018-04-20 21:51:43:039,,,
4.4351,-6.048,-3.279,5.407,-7.2499,-3.8,0.6728,-1.4054,-0.534,-0.208,-0.9746,-0.1611,0.473,-7.5,55.2,13.32,15.58,48.55,-121.2,0,1015.09,53.425,30.453497,-84.31869,57.44,NaN,,0,58.7871,,19-Aug,21504,2018-04-20 21:51:43:139,,,
4.4901,-5.7121,-3.0907,5.4398,-7.3422,-3.5688,1.8998,-2.217,0.0365,0.4724,0.3105,0.0325,0.473,-7.18,54.91,15,16.91,47.43,-125.77,0,1015.17,51.987,30.453497,-84.31869,57.44,NaN,,0,58.7871,,19-Aug,21604,2018-04-20 21:51:43:239,,,
3.6723,-4.7585,-3.7695,5.4157,-7.4894,-3.2885,-1.0108,1.8451,0.7758,0.362,0.3504,0.2073,0.473,-8.28,55.01,11.56,13.44,49.77,-121.27,0,1015.17,51.987,30.453497,-84.31869,57.44,NaN,,0,58.7871,,19-Aug,21704,2018-04-20 21:51:43:339,,,
6.0586,-5.3738,-5.7822,5.393,-7.3928,-3.5352,-3.3239,3.8474,2.2023,0.2848,-0.4866,-0.149,0.473,-8.67,54.75,13.13,13.31,48.9,-123.25,0,1015.32,51.987,30.453497,-84.31869,57.44,NaN,,0,58.7871,,19-Aug,21804,2018-04-20 21:51:43:439,,,
8.7003,-11.2443,-5.6203,5.2525,-7.433,-3.6604,1.5348,-0.2805,-2.2525,0.0288,-0.43,0.0728,0.473,-7.91,55.04,12.13,12.19,48.9,-123.25,0,1015.37,53.341,30.453497,-84.31869,57.44,NaN,,0,58.7871,,19-Aug,21904,2018-04-20 21:51:43:539,,,
3.6926,-6.9558,0.0339,5.5385,-7.5156,-3.0127,-2.0322,2.4385,-3.4832,0.3274,0.8541,0.2218,0.473,-9.47,55.13,11.29,9.59,48.66,-122.56,0,1015.37,53.341,30.453497,-84.31869,57.44,NaN,,0,58.7871,,19-Aug,22004,2018-04-20 21:51:43:639,,,
7.0972,-7.2543,-1.4151,5.8589,-7.4208,-2.6156,0.386,-0.0632,-1.1442,0.1918,0.8354,-0.3465,0.473,-9.71,54.28,10.19,11.29,49.15,-114.06,0,1015.45,53.341,30.453497,-84.31869,57.44,NaN,,0,58.7871,,19-Aug,22103,2018-04-20 21:51:43:738,,,
5.9368,-6.9257,-1.7893,6.1476,-7.4286,-1.805,-0.9793,-1.0464,1.0439,0.0726,0.8669,0.0091,0.473,-11.94,54.57,8.43,9.56,49.22,-106.36,0,1015.51,54.596,30.453497,-84.31869,57.44,NaN,,0,58.7871,,19-Aug,22203,2018-04-20 21:51:43:838,,,
7.158,-6.0913,-2.8568,5.9866,-7.6612,-1.3048,-0.7247,-1.5802,1.2951,0.5786,-0.0228,0.4051,0.473,-11.44,55.63,7.9,10.71,49.54,-104.19,0,1015.51,54.596,30.453497,-84.31869,57.44,NaN,,0,58.7871,,19-Aug,22304,2018-04-20 21:51:43:939,,,
5.9273,-7.4819,-1.3059,5.8238,-7.8341,-0.9731,-0.2839,-0.1555,0.3193,0.6408,0.0613,0.3519,0.473,-9.19,56.38,5.2,7.57,52.99,-99.49,0,1015.53,54.596,30.453497,-84.31869,57.44,NaN,,0,58.7871,,0 / 19,22404,2018-04-20 21:51:44:039,,,
6.5576,-7.1231,-1.0132,5.8192,-7.8849,-0.4487,-3.6196,1.919,0.7336,-0.0335,0.6972,0.0284,0.473,-9.02,56.49,3.42,5.07,53.49,-94.41,0,1015.5,54.596,30.453497,-84.31869,57.44,NaN,,0,58.7871,,0 / 19,22504,2018-04-20 21:51:44:139,,,
9.0919,-7.8527,-0.2996,5.9844,-7.7434,-0.6801,1.9714,1.3479,-1.8165,-0.235,-0.2994,-0.3342,0.473,-10.08,56.32,4.57,8.37,52.12,-96.48,0,1015.5,51.943,30.453497,-84.31869,57.44,NaN,,0,58.7871,,0 / 19,22604,2018-04-20 21:51:44:239,,,
2.8427,-10.3823,-0.4051,5.9469,-7.3783,-2.5359,1.1772,3.8406,-1.3102,-1.4876,-0.8321,-0.1789,0.473,-11.74,54.36,8.27,11.51,50.94,-104.34,0,1015.16,51.943,30.453497,-84.31869,57.44,NaN,,0,58.7871,,0 / 19,22704,2018-04-20 21:51:44:339,,,
5.4737,-6.2551,-2.6025,5.7508,-6.9432,-3.8673,1.1253,-1.4054,-0.5666,-0.5662,-0.8832,-0.1602,0.473,-12.51,53.39,14.77,16.44,46.61,-119.23,0,1015.03,51.943,30.453497,-84.31869,57.44,NaN,,0,58.7871,,0 / 19,22803,2018-04-20 21:51:44:438,,,
4.6273,-5.4315,-3.3294,5.5986,-6.922,-4.1204,1.761,-2.1105,-0.3764,0.0701,-0.7918,-0.1056,0.473,-12.1,53.61,15.55,13.13,44.88,-126.35,0,1015.03,47.025,30.453497,-84.31869,57.44,NaN,,0,58.7871,,0 / 19,22904,2018-04-20 21:51:44:539,,,
3.5315,-5.4592,-4.1977,5.6683,-7.2407,-3.4174,-2.3855,1.8692,0.8898,0.5676,0.6645,0.1714,0.473,-11.56,53.34,14.88,13.01,45.94,-124.83,0,1015.1,47.025,30.453497,-84.31869,57.44,NaN,,0,58.7871,,0 / 19,23004,2018-04-20 21:51:44:639,,,
8.0867,-9.2337,-4.9162,5.6077,-7.2689,-3.4572,-0.1348,-1.559,2.2123,0.0217,-0.1267,0.0796,0.473,-11.01,55.19,12.18,9.95,47.81,-121.65,0,1015.1,47.025,30.453497,-84.31869,57.44,NaN,,0,58.7871,,0 / 19,23104,2018-04-20 21:51:44:739,,,
4.995,-4.7152,-5.6923,5.2667,-7.3835,-3.7392,2.1935,1.7165,-1.4453,0.229,-0.491,0.4183,0.473,-10.58,54.85,12.95,10.08,48.82,-125.37,0,1015.21,49.35,30.453497,-84.31869,57.44,NaN,,0,58.7871,,0 / 19,23204,2018-04-20 21:51:44:839,,,
3.0743,-5.7988,-0.693,5.5212,-7.5165,-3.0421,-2.4796,1.207,-2.363,0.6384,0.6144,0.198,0.473,-10.59,54.95,13.05,11.21,48.2,-123.2,0,1015.26,49.35,30.453497,-84.31869,57.44,NaN,,0,58.7871,,0 / 19,23304,2018-04-20 21:51:44:939,,,
7.9101,-8.7437,-0.6546,5.8177,-7.4508,-2.6222,1.3285,-0.9457,-0.7388,0.2514,0.8155,-0.3158,0.473,-10.82,54.86,9.73,8.09,50.01,-118.85,0,1015.33,49.35,30.453497,-84.31869,57.44,NaN,,0,58.7871,,0 / 19,23404,2018-04-20 21:51:45:039,,,Out
7.0733,-7.1629,-1.7341,6.1484,-7.4513,-1.7066,-0.3565,-1.0437,0.1123,0.1906,0.8366,0.0162,0.473,-11.91,55.19,8.18,8.06,49.22,-109.28,0,1015.33,49.35,30.453497,-84.31869,57.44,NaN,,0,58.7871,,0 / 19,23504,2018-04-20 21:51:45:139,,,Out
6.751,-6.5127,-2.2727,6.0706,-7.5841,-1.3656,-0.8874,-2.0339,1.2519,0.3578,0.4772,0.2761,0.473,-10.86,55.72,6.79,9.63,50.63,-102.68,0,1015.44,54.572,30.453497,-84.31869,57.44,NaN,,0,58.7871,,0 / 19,23604,2018-04-20 21:51:45:239,,,Out
6.7593,-6.4296,-1.168,5.7815,-7.8857,-0.7907,-0.5455,-0.1742,0.1446,0.597,0.045,0.1945,0.473,-9.76,56.25,5.29,6.85,52.51,-100.64,0,1015.44,54.572,30.453497,-84.31869,57.44,NaN,,0,58.7871,,0 / 19,23704,2018-04-20 21:51:45:339,,,Out
6.2663,-7.7528,-0.7518,5.7788,-7.9119,-0.4939,-2.7632,2.4646,0.4996,0.2153,0.5261,0.0565,0.473,-8.68,56.59,2.36,2.67,53.76,-94.88,0,1015.45,54.572,30.453497,-84.31869,57.44,NaN,,0,58.7871,,0 / 19,23804,2018-04-20 21:51:45:439,,,Out
7.8838,-7.8455,0.1526,5.9485,-7.7328,-1.0274,1.947,0.2234,-1.9117,-0.3698,-0.9395,-0.2133,0.473,-9,56.73,4.75,7.06,52.02,-99.8,0,1015.31,55.351,30.453497,-84.31869,57.44,NaN,,0,58.7871,,0 / 19,23904,2018-04-20 21:51:45:539,,,Out
3.547,-10.6977,-1.0756,5.9715,-7.2324,-2.8757,-0.9756,0.8245,-0.1523,-1.2722,-0.6863,-0.2625,0.473,-9.39,56.81,7.86,9.44,50.08,-108.85,0,1015.09,55.351,30.453497,-84.31869,57.44,NaN,,0,58.7871,,0 / 19,24004,2018-04-20 21:51:45:639,,,Out
5.2099,-7.0003,-2.7152,5.8622,-7.0436,-3.5013,0.6216,-0.1146,-0.5465,-0.6738,-0.8733,-0.1544,0.473,-10.51,54.83,14.38,13.61,45.89,-120.85,0,1015.09,55.351,30.453497,-84.31869,57.44,NaN,,0,58.7871,,0 / 19,24104,2018-04-20 21:51:45:739,,,Out
4.5939,-4.4804,-3.2322,5.6581,-7.0122,-3.8796,1.5088,-1.4507,-0.7181,0.3817,-0.4999,-0.1666,0.473,-9.61,54.83,14.75,14.28,45.35,-124.09,0,1015.06,52.853,30.453497,-84.31869,57.44,NaN,,0,58.7871,,0 / 19,24204,2018-04-20 21:51:45:839,,,Out
3.5733,-5.1113,-3.213,5.7907,-7.1232,-3.4589,-0.1125,0.2565,1.7722,0.645,0.3996,-0.1039,0.473,-10.09,56.23,11.36,8.71,46.56,-120.85,0,1015.06,52.853,30.453497,-84.31869,57.44,NaN,,0,58.7871,,0 / 19,24304,2018-04-20 21:51:45:939,,,Out
7.3837,-9.8898,-3.8235,5.8391,-7.3149,-2.9382,0.4614,-1.3879,3.0806,0.0176,0.0264,0.0606,0.473,-10.45,56.53,9.37,7.08,47.97,-116.72,0,1015.29,52.853,30.453497,-84.31869,57.44,NaN,,0,58.7871,,0 / 19,24403,2018-04-20 21:51:46:038,,,Out
5.3579,-6.7138,-5.1369,5.55,-7.4397,-3.1756,-2.0408,3.6449,0.1242,0.1458,-0.5332,0.4026,0.473,-10.6,56.37,10.69,9.87,47.71,-117.62,0,1015.41,48.456,30.453497,-84.31869,57.44,NaN,,0,58.7871,,0 / 19,24503,2018-04-20 21:51:46:138,,,Out
3.9923,-6.3285,-0.1772,5.664,-7.3585,-3.1634,2.0583,-1.2043,-4.1789,-0.176,0.221,-0.1584,0.473,-9.52,56.93,10.41,7.98,48.6,-119.18,0,1015.41,48.456,30.453497,-84.31869,57.44,NaN,,0,58.7871,,0 / 19,24603,2018-04-20 21:51:46:238,,,Out
4.9831,-6.1768,1.0834,5.8846,-7.5233,-2.2376,1.168,-1.4102,-1.1814,0.1796,0.8624,-0.1823,0.473,-9.2,57,8.02,8.7,50.08,-110.82,0,1015.39,48.456,30.453497,-84.31869,57.44,NaN,,0,58.7871,,0 / 19,24703,2018-04-20 21:51:46:338,,,Out
6.9551,-7.8539,-1.1787,6.0917,-7.4806,-1.7798,-1.1156,0.1333,-0.6236,0.1189,1.0465,-0.148,0.473,-10.59,57.65,6.58,7.4,49.69,-106.29,0,1015.45,47.881,30.453497,-84.31869,57.44,NaN,,0,58.7871,,0 / 19,24804,2018-04-20 21:51:46:439,,,Out
6.3905,-7.0954,-1.4726,6.0648,-7.6297,-1.1141,-0.4705,-1.4122,1.069,0.0354,0.6729,0.2318,0.473,-9.7,57.42,5.37,5.44,50.26,-102.73,0,1015.45,47.881,30.453497,-84.31869,57.44,NaN,,0,58.7871,,0 / 19,24903,2018-04-20 21:51:46:538,,,Out
6.9658,-6.8799,-1.2183,5.9329,-7.7586,-0.9168,-0.3814,0.0192,3.00E-04,0.2493,0.2262,0.33,0.473,-7.36,57.42,4.59,7.66,52.27,-98.78,0,1015.47,47.881,30.453497,-84.31869,57.44,NaN,,0,58.7871,,0 / 19,25003,2018-04-20 21:51:46:638,,,Out
5.9595,-8.0875,-0.7398,5.7054,-7.953,-0.6599,-2.4423,-0.192,0.9648,-0.0594,0.2919,0.1873,0.473,-7.85,57.95,4.39,6.11,53.54,-97.21,0,1015.47,47.881,30.453497,-84.31869,57.44,NaN,,0,58.7871,,0 / 19,25104,2018-04-20 21:51:46:739,,,Out
7.4218,-7.4193,-1.4306,5.9261,-7.7408,-1.0943,-2.1444,0.1029,0.4097,-0.2277,-0.7886,-0.3771,0.473,-8.39,58.34,4.8,8.28,53.63,-96.88,0,1015.44,52.207,30.453497,-84.31869,57.44,NaN,,0,58.7871,,0 / 19,25204,2018-04-20 21:51:46:839,,,Out
4.9568,-7.1869,1.0894,5.8251,-7.6447,-1.9654,1.4202,4.3919,-0.857,-0.8683,-1.2405,-0.0524,0.473,-8.99,56.43,7.45,8,51.19,-108.64,0,1015.18,52.207,30.453497,-84.31869,57.44,NaN,,0,58.7871,,0 / 19,25304,2018-04-20 21:51:46:939,,,Out
5.4617,-10.8398,-0.9461,5.864,-7.0644,-3.456,-0.5087,-0.3971,-0.7671,-0.7655,-0.7288,-0.2297,0.473,-9.51,57.17,15.47,15.73,46.06,-120.51,0,1015.09,52.207,30.453497,-84.31869,57.44,NaN,,0,58.7871,,0 / 19,25404,2018-04-20 21:51:47:039,,,Out
4.9294,-5.6025,-2.8916,5.6679,-7.0274,-3.8375,2.0786,-0.915,-0.9919,0.2086,-1.3133,-0.2319,0.473,-9.41,56.04,14.99,14.9,45.75,-124.1,0,1015.09,52.27,30.453497,-84.31869,57.44,NaN,,0,58.7871,,0 / 19,25504,2018-04-20 21:51:47:139,,,Out
3.3811,-6.2081,-2.834,5.5652,-7.211,-3.6424,2.5063,-1.3666,-0.6437,0.5585,0.0894,-0.1102,0.473,-9.63,56.34,12.74,11.48,47.31,-123.2,0,1015.05,52.27,30.453497,-84.31869,57.44,NaN,,0,58.7871,,0 / 19,25604,2018-04-20 21:51:47:239,,,Out
5.8604,-8.108,-4.3801,5.6874,-7.3141,-3.2238,-1.5819,3.0261,1.5878,-0.2878,0.1884,0.0535,0.473,-9.84,57.91,10.64,9.71,48.55,-119.04,0,1015.05,52.27,30.453497,-84.31869,57.44,NaN,,0,58.7871,,0 / 19,25704,2018-04-20 21:51:47:339,,,Out
6.5946,-8.5607,-5.1009,5.803,-7.161,-3.3588,-0.0659,1.4406,-0.0662,-0.372,0.1535,-0.1712,0.473,-10.41,57.01,11.83,11.49,48.21,-119.55,0,1015.42,50.997,30.453497,-84.31869,57.44,NaN,,0,58.7871,,0 / 19,25804,2018-04-20 21:51:47:439,,,Out
3.5888,-11.1203,-2.2607,5.3749,-7.5696,-3.1699,0.3408,3.9329,-1.3822,0.3089,0.0259,0.5505,0.473,-9.96,56.89,11.07,9.06,48.11,-120.57,0,1015.38,50.997,30.453497,-84.31869,57.44,NaN,,0,58.7871,,0 / 19,25903,2018-04-20 21:51:47:538,,,Out
3.4742,-6.3743,0.1646,5.2543,-7.8675,-2.5945,-0.1816,-1.6603,-2.306,0.668,0.6615,0.4971,0.473,-7.66,57.69,8.17,7.93,53.32,-116.28,0,1015.15,50.997,30.453497,-84.31869,57.44,NaN,,0,58.7871,,0 / 19,26003,2018-04-20 21:51:47:638,,,Out
5.5632,-11.4261,-1.956,5.8956,-7.7549,-1.1574,-2.6545,2.1981,0.0336,1.6072,0.0681,-0.9104,0.473,-10.57,58.09,1.08,357.57,52.23,-101.11,0,1015.15,52.35,30.453497,-84.31869,57.44,NaN,,0,58.7871,,0 / 19,26103,2018-04-20 21:51:47:738,,,Out
5.3973,-6.7812,-2.3158,6.2579,-7.3779,1.6249,-4.1233,1.4028,7.0123,2.8315,0.3754,-0.7063,0.473,-11.01,57.72,-4.14,351.94,52.61,-88.65,0,1014.96,52.35,30.453497,-84.31869,57.44,NaN,,0,58.7871,,0 / 19,26204,2018-04-20 21:51:47:839,,,Out
5.5155,-9.4612,-0.537,7.2439,-6.4543,1.4504,2.9358,-1.0191,7.6092,1.4183,-1.7275,-1.8373,0.473,-17.39,51.13,-14.88,335.97,41.14,-78.68,0,1014.96,52.35,30.453497,-84.31869,57.44,NaN,,0,58.7871,,0 / 19,26304,2018-04-20 21:51:47:939,,,Out
19.235,-3.6244,-4.0562,8.7557,-4.2436,-1.2516,-15.3066,-1.2924,-2.7647,-4.2512,0.2594,-4.1124,0.473,-24.57,52.98,-1.08,358.69,41.72,-88.91,0,1014.95,52.35,30.453497,-84.31869,57.44,NaN,,0,58.7871,,0 / 19,26404,2018-04-20 21:51:48:039,,,Out
22.4234,-5.6242,2.6775,9.7688,0.6346,-0.6357,-0.6545,15.5142,-0.3507,-3.8728,1.7744,-7.7139,0.473,-37.12,42.05,5.69,1.86,25.63,-98.14,2,1015.03,56.187,30.453497,-84.31869,57.44,NaN,,0,58.7871,,0 / 19,26504,2018-04-20 21:51:48:139,,,
4.8339,-6.7114,-2.371,3.4848,8.5412,3.3378,2.754,12.6838,5.1957,-1.7549,2.9524,-8.5157,0.473,-47.02,-5.56,-4.09,11.95,-35.74,-79.33,2,1015.03,56.187,30.453497,-84.31869,57.44,NaN,,0,58.7871,,0 / 19,26604,2018-04-20 21:51:48:239,,,
-2.356,-0.3869,-2.3698,-0.4883,8.4602,4.9419,3.9056,4.2759,4.7882,-2.5376,2.8716,-5.8336,0.473,-21.24,-25.51,-22.43,80.31,-59.59,5.64,2,1015.12,56.187,30.453497,-84.31869,57.44,NaN,,0,58.7871,,0 / 19,26704,2018-04-20 21:51:48:339,,,
-2.9146,6.0555,7.3337,-2.3907,6.4913,6.9559,-5.0471,0.3809,-9.4161,-2.1106,-1.3024,1.0069,0.473,-14.23,-18.7,-32.3,83.32,-41.43,18.97,2,1015.19,60.393,30.453497,-84.31869,57.44,NaN,,0,58.7871,,0 / 19,26804,2018-04-20 21:51:48:439,,,
0.0709,6.1302,12.3749,-0.8261,6.8357,6.9876,-1.3761,0.1952,1.0508,0.1842,-1.0578,0.3983,142.619,-19.18,-18.06,-31.2,78.66,-43.24,11.84,2,1015.19,60.393,30.453497,-84.31869,57.44,NaN,,0,58.7871,,0 / 19,26904,2018-04-20 21:51:48:539,,,
-0.138,6.5636,5.2407,-0.6752,6.8349,7.0046,-0.0282,0.1888,1.1061,-0.0238,-0.2238,0.1062,414.124,-23.42,-18.37,-30.62,74.76,-44.17,5.51,2,1015.22,60.393,30.453497,-84.31869,57.44,NaN,,0,58.7871,,0 / 19,27004,2018-04-20 21:51:48:639,,,
0.4553,7.5725,6.8515,-0.5854,7.1546,6.6862,0.6179,-1.7164,0.5548,0.3434,0.4431,0.1465,372.922,-23.41,-18.2,-28.22,75.48,-46.83,5,2,1015.24,56.272,30.453497,-84.31869,57.44,NaN,,0,58.7871,,0 / 19,27104,2018-04-20 21:51:48:739,,,
-1.321,9.0594,6.0443,-0.3542,7.1906,6.6638,-0.3644,-0.4909,-0.8335,0.05,-0.2892,0.2443,319.044,-24.92,-18.9,-27.9,75.99,-47.14,3.04,2,1015.24,56.272,30.453497,-84.31869,57.44,NaN,,0,58.7871,,0 / 19,27204,2018-04-20 21:51:48:839,,,
-1.3282,7.847,7.0026,-0.3963,7.3192,6.5199,1.1359,-0.4348,-0.3389,0.0587,0.2341,0.1391,248.263,-23.82,-18.95,-28.14,74.44,-48.01,3.12,2,1015.25,56.272,30.453497,-84.31869,57.44,NaN,,0,58.7871,,0 / 19,27304,2018-04-20 21:51:48:939,,,
-0.5952,7.3137,7.3241,-0.5068,7.3447,6.4834,0.2342,2.1069,-0.5722,0.4128,0.9738,0.4715,209.175,-23.74,-17.22,-28.1,72.39,-46.96,2.67,2,1015.25,58.173,30.453497,-84.31869,57.44,NaN,,0,58.7871,,0 / 19,27404,2018-04-20 21:51:49:039,,,
-1.0202,7.9024,5.3882,-0.2646,7.6042,6.1921,0.1703,0.4138,0.0235,0.6129,-0.3047,0.2732,138.393,-24.87,-17.99,-27.42,71.56,-50.82,2.45,2,1015.25,58.173,30.453497,-84.31869,57.44,NaN,,0,58.7871,,0 / 19,27503,2018-04-20 21:51:49:138,,,
-0.1428,6.6118,7.4164,-0.1831,7.2417,6.6151,0.4138,0.2578,0.0821,-0.2092,0.0416,0.205,101.418,-24.22,-16.93,-28.81,69.05,-48.3,2.27,2,1015.26,58.173,30.453497,-84.31869,57.44,NaN,,0,58.7871,,0 / 19,27604,2018-04-20 21:51:49:239,,,
-0.4245,6.9922,6.7376,-0.1247,7.2448,6.6131,0.0339,0.2144,-0.3079,0.0054,0.0926,0.2185,87.684,-24.52,-15.77,-30.22,66.69,-47.61,1.08,2,1015.26,58.173,30.453497,-84.31869,57.44,NaN,,0,58.7871,,0 / 19,27703,2018-04-20 21:51:49:338,,,
-0.5833,7.6111,6.3813,-0.0708,7.7377,6.0299,0.8133,-0.9466,0.2764,0.7925,0.0769,0.176,105.644,-25.15,-17.23,-29.3,64.31,-52.07,0.67,2,1015.26,59.453,30.453497,-84.31869,57.44,NaN,,0,58.7871,,0 / 19,27804,2018-04-20 21:51:49:439,,,
-0.5009,8.0096,6.4761,0.1035,7.9776,5.7082,0.9829,-1.0959,1.0017,0.2047,0.0826,0.1889,114.095,-25.29,-18.33,-27.08,65.62,-53.65,-0.44,2,1015.27,59.453,30.453497,-84.31869,57.44,NaN,,0,58.7871,,0 / 19,27903,2018-04-20 21:51:49:538,,,
-1.1443,9.4868,4.1744,0.4192,7.7015,6.062,-2.0477,1.5736,-3.2978,-0.7512,-0.6603,0.1493,126.773,-26.17,-17.62,-27.18,65.06,-54.41,-1.04,2,1015.28,59.453,30.453497,-84.31869,57.44,NaN,,0,58.7871,,0 / 19,28004,2018-04-20 21:51:49:639,,,
2.6075,5.9448,9.7494,0.0668,7.3918,6.4493,0.1817,-0.1625,0.96,-0.0163,0.0176,-0.305,126.773,-25.69,-15.78,-29.02,64.41,-48.9,-1.92,2,1015.28,59.324,30.453497,-84.31869,57.44,NaN,,0,58.7871,,0 / 19,28103,2018-04-20 21:51:49:738,,,
0.269,6.8779,6.7975,0.0233,7.1425,6.7246,-0.3873,0.9115,-0.2566,-0.5987,-0.1409,-0.223,126.773,-25.99,-14.67,-30.63,64.49,-46.73,-0.2,2,1015.27,59.324,30.453497,-84.31869,57.44,NaN,,0,58.7871,,0 / 19,28204,2018-04-20 21:51:49:839,,,
0.3478,6.1157,7.149,0.04,6.9535,6.9198,-0.1909,-0.1347,0.5947,-0.0273,-0.1267,0.012,123.603,-25.79,-13.5,-30.34,66.45,-45.21,0.17,2,1015.27,59.324,30.453497,-84.31869,57.44,NaN,,0,58.7871,,0 / 19,28303,2018-04-20 21:51:49:938,,,
0.2523,6.6082,6.157,0.0124,7.0714,6.7994,-0.0619,0.4504,0.2663,0.2657,-0.0955,-0.1596,115.152,-26.12,-14.27,-29.3,66.59,-46.12,-0.1,2,1015.27,60.668,30.453497,-84.31869,57.44,NaN,,0,58.7871,,0 / 19,28404,2018-04-20 21:51:50:039,,,
-0.2741,7.2258,6.5181,-0.3457,7.5136,6.2978,-0.3834,-1.3969,1.5624,0.6451,0.7195,0.1321,107.757,-24.24,-16.21,-29.15,66.93,-49.99,3.14,2,1015.28,60.668,30.453497,-84.31869,57.44,NaN,,0,58.7871,,0 / 19,28503,2018-04-20 21:51:50:138,,,
0.6463,8.6501,6.1606,-0.0733,7.5261,6.2919,-0.2102,-2.0908,-0.8335,-0.1781,0.0198,0.0827,107.757,-25.47,-15.18,-28.95,63.92,-50.1,0.67,2,1015.28,60.668,30.453497,-84.31869,57.44,NaN,,0,58.7871,,0 / 19,28604,2018-04-20 21:51:50:239,,,
-0.3768,8.9402,6.2146,0.134,7.3559,6.4891,-1.3194,2.2844,-3.8942,-0.4276,-0.3147,0.1802,89.797,-25.5,-15.21,-29.77,63.46,-50.1,0.67,2,1015.28,60.668,30.453497,-84.31869,57.44,NaN,,0,58.7871,,0 / 19,28704,2018-04-20 21:51:50:339,,,
-0.9892,5.0912,6.0359,-0.7992,7.1834,6.633,0.9301,1.4818,1.4111,-0.021,1.467,0.0899,63.386,-22.7,-13.84,-31.98,60.9,-47.13,1.85,2,1015.28,56.933,30.453497,-84.31869,57.44,NaN,,0,58.7871,,0 / 19,28804,2018-04-20 21:51:50:439,,,
-1.8081,7.0187,5.1411,-0.7012,7.0663,6.7685,-0.423,2.5423,-0.4606,-0.2949,-0.136,0.1031,29.58,-21.6,-11.07,-32.61,60.37,-46.08,5.91,2,1015.28,56.933,30.453497,-84.31869,57.44,NaN,,0,58.7871,,0 / 19,28903,2018-04-20 21:51:50:538,,,
0.0255,7.0079,6.5289,-0.8183,6.5058,7.2967,1.0368,-0.7497,1.0866,-0.4036,0.2846,0.0477,29.58,-21.2,-9.48,-34.76,57.21,-42.92,5.7,2,1015.28,56.933,30.453497,-84.31869,57.44,NaN,,0,58.7871,,0 / 19,29004,2018-04-20 21:51:50:639,,,
-1.7412,6.631,6.7256,-0.5602,6.3836,7.4278,1.0013,-0.1594,0.0064,-0.1032,-0.4036,-0.2785,29.58,-21.65,-8.69,-34.9,59.11,-41.05,4.87,2,1015.28,40.872,30.453497,-84.31869,57.44,NaN,,0,58.7871,,0 / 19,29103,2018-04-20 21:51:50:738,,,
-2.1077,6.8176,6.4689,-0.3175,6.5487,7.2972,1.4682,-1.1931,0.1674,0.3514,-0.5958,-0.0491,29.58,-23.01,-9.71,-33.67,59.23,-41.88,2.49,2,1015.28,40.872,30.453497,-84.31869,57.44,NaN,,0,58.7871,,0 / 19,29204,2018-04-20 21:51:50:839,,,
-0.6298,7.4305,7.5148,0.3532,6.4729,7.363,0.0898,-0.7139,-0.8115,-0.2752,-0.418,-0.0531,29.58,-26.97,-9.33,-31.9,59.17,-41.29,-2.75,2,1015.28,40.872,30.453497,-84.31869,57.44,NaN,,0,58.7871,,0 / 19,29304,2018-04-20 21:51:50:939,,,
1.5654,5.4584,9.0105,0.3559,6.1135,7.6638,-1.0527,1.3272,-1.1478,-0.7596,-0.1609,-0.1991,29.58,-27.2,-8.46,-31.27,61.57,-38.55,-2.66,2,1015.28,44.844,30.453497,-84.31869,57.44,NaN,,0,58.7871,,0 / 19,29404,2018-04-20 21:51:51:039,,,
0.8062,5.1863,7.8567,0.085,5.9358,7.81,-0.6113,0.1673,0.8845,0.056,-0.2293,-0.32,29.58,-26.07,-7.47,-32.6,60.6,-37.02,-0.62,2,1015.28,44.844,30.453497,-84.31869,57.44,NaN,,0,58.7871,,0 / 19,29503,2018-04-20 21:51:51:138,,,
0.3968,5.521,7.2461,-0.1378,5.4662,8.1448,-0.3883,0.5685,1.0335,-0.6294,0.3905,-0.2612,19.016,-26.17,-7.21,-33.11,60.97,-36.12,-1.08,2,1015.28,44.844,30.453497,-84.31869,57.44,NaN,,0,58.7871,,0 / 19,29604,2018-04-20 21:51:51:239,,,
0.571,5.1465,7.4572,-0.2568,5.2424,8.2878,-0.0776,0.2906,1.5911,-0.4367,0.0731,-0.2452,19.016,-25.7,-6.29,-34.51,61.77,-33.86,0.97,2,1015.28,43.626,30.453497,-84.31869,57.44,NaN,,0,58.7871,,0 / 19,29704,2018-04-20 21:51:51:339,,,
-0.1273,5.1189,7.3037,-0.3139,5.0042,8.4318,0.5784,-0.9654,0.1923,-0.1875,0.1117,-0.1441,19.016,-25.93,-6.48,-34.83,64.61,-31.33,1.4,2,1015.28,43.626,30.453497,-84.31869,57.44,NaN,,0,58.7871,,0 / 19,29804,2018-04-20 21:51:51:439,,,
-0.9545,6.5407,8.6699,-0.2022,5.016,8.4282,-0.0781,-1.139,-1.1006,0.0085,-0.1692,0.0771,19.016,-25.28,-5.58,-35.76,63.42,-30.75,1.37,2,1015.29,43.626,30.453497,-84.31869,57.44,NaN,,0,58.7871,,0 / 19,29904,2018-04-20 21:51:51:539,,,
0.6307,6.0543,10.5002,0.3028,5.1374,8.3517,-0.0647,0.0103,-1.9448,0.0097,-0.1634,0.1093,19.016,-27.24,-5.36,-33.03,62.33,-31.58,-2.08,2,1015.29,46.2,30.453497,-84.31869,57.44,NaN,,0,58.7871,,0 / 19,30004,2018-04-20 21:51:51:639,,,
0.4171,3.2491,10.174,0.345,5.1632,8.3342,1.235,0.7204,1.9552,0.0794,-5.00E-04,0.1222,19.016,-27.47,-5.61,-32.79,63.37,-31.76,-2.37,2,1015.29,46.2,30.453497,-84.31869,57.44,NaN,,0,58.7871,,0 / 19,30103,2018-04-20 21:51:51:738,,,
-1.0668,4.6806,6.3226,0.5043,5.3896,8.1813,0.1527,0.8149,0.3863,-0.1522,-0.3175,0.3043,19.016,-27.55,-5.86,-33.1,61.57,-33.33,-3.53,2,1015.29,46.2,30.453497,-84.31869,57.44,NaN,,0,58.7871,,0 / 19,30203,2018-04-20 21:51:51:838,,,
-0.3899,4.028,7.9334,0.3666,4.9835,8.442,0.87,0.9129,0.8349,-0.2776,0.3604,0.2655,12.677,-27.58,-3.5,-33.25,60.58,-31.59,-3.3,2,1015.29,46.2,30.453497,-84.31869,57.44,NaN,,0,58.7871,,0 / 19,30304,2018-04-20 21:51:51:939,,,
-0.4949,4.4783,7.2149,0.4993,4.9145,8.4755,0.0812,-0.1719,0.491,-0.1213,-0.08,0.3024,12.677,-27.61,-2.58,-33.49,60.47,-30.06,-3.37,2,1015.29,51.654,30.453497,-84.31869,57.44,NaN,,0,58.7871,,19-Jun,30404,2018-04-20 21:51:52:039,,,
0.3801,4.9996,8.1277,0.4638,4.7767,8.556,0.2376,-0.8107,-0.422,-0.0212,0.0142,-0.0742,12.677,-26.81,-2.15,-33.72,58.08,-29.17,-3.34,2,1015.29,51.654,30.453497,-84.31869,57.44,NaN,,0,58.7871,,19-Jun,30504,2018-04-20 21:51:52:139,,,
-0.4472,5.1839,10.024,0.4012,4.7005,8.6012,0.6277,-0.6349,-0.9472,-0.1413,0.0938,-0.019,12.677,-27.3,-0.49,-33.79,56.38,-28.63,-2.67,2,1015.29,51.654,30.453497,-84.31869,57.44,NaN,,0,58.7871,,19-Jun,30604,2018-04-20 21:51:52:239,,,
-0.0736,5.3741,9.7074,1.0238,4.554,8.6284,-1.2299,1.3876,-2.4819,-0.352,-0.6225,0.2298,12.677,-29.21,-0.6,-33.72,56.56,-27.66,-6.77,2,1015.29,43.94,30.453497,-84.31869,57.44,NaN,,0,58.7871,,19-Jun,30703,2018-04-20 21:51:52:338,,,
2.4595,3.3827,9.9773,1.088,4.9082,8.4239,-0.458,0.5282,1.3055,0.568,-0.1884,-0.1377,12.677,-29.35,0.42,-32.99,55.78,-27.92,-6.76,2,1015.29,43.94,30.453497,-84.31869,57.44,NaN,,0,58.7871,,19-Jun,30803,2018-04-20 21:51:52:438,,,
1.4795,4.3242,7.2461,0.8511,4.6312,8.6061,0.084,0.7912,0.6575,-0.5346,0.3397,-0.1774,12.677,-28.85,-1.55,-33.18,59.5,-28.17,-5.65,2,1015.29,43.94,30.453497,-84.31869,57.44,NaN,,0,58.7871,,19-Jun,30904,2018-04-20 21:51:52:539,,,
0.6976,3.7234,8.2729,0.4989,3.7024,9.0708,-0.2674,-0.4663,1.0673,-0.5321,-0.0699,-0.0718,12.677,-26.64,2.93,-35.38,55.04,-24.05,-3.02,2,1015.29,43.94,30.453497,-84.31869,57.44,NaN,,0,58.7871,,19-Jun,31004,2018-04-20 21:51:52:639,,,
0.6964,3.6753,9.5659,0.6256,3.6105,9.0999,-0.2966,-0.7646,0.1884,-0.1435,-0.1102,0.2648,12.677,-28.47,3.52,-35.3,55.92,-21.6,-3.93,2,1015.3,43.94,30.453497,-84.31869,57.44,NaN,,0,58.7871,,19-Jun,31104,2018-04-20 21:51:52:739,,,
1.187,4.0762,9.6822,0.8814,4.1932,8.8247,0.1111,-0.3318,-1.1266,0.5294,-0.1092,0.3379,12.677,-28.27,2.51,-36.8,53.57,-23.49,-4.7,2,1015.3,43.94,30.453497,-84.31869,57.44,NaN,,0,58.7871,,19-Jun,31203,2018-04-20 21:51:52:838,,,
0.8205,4.4783,9.9029,0.7641,4.6023,8.6297,-0.316,-0.1396,-0.6671,0.2219,0.3645,0.0391,12.677,-28.99,1.65,-34.38,53.36,-27.22,-6.26,2,1015.29,43.94,30.453497,-84.31869,57.44,NaN,,0,58.7871,,19-Jun,31303,2018-04-20 21:51:52:938,,,
0.9674,4.5855,9.609,0.4792,4.581,8.6615,-0.1777,0.8727,0.32,-0.0366,0.5078,-0.0386,12.677,-26.57,1.45,-36.08,53.66,-27.84,-3.17,2,1015.29,50.455,30.453497,-84.31869,57.44,NaN,,0,58.7871,,0 / 19,31403,2018-04-20 21:51:53:038,,,
0.4135,3.0817,8.4599,0.7375,4.1647,8.8514,0.5686,0.5162,0.2644,-0.3896,-0.1662,0.4625,12.677,-26.26,2,-36.11,52.02,-26.64,-3.4,2,1015.29,50.455,30.453497,-84.31869,57.44,NaN,,0,58.7871,,0 / 19,31504,2018-04-20 21:51:53:139,,,
0.0744,3.6331,8.6951,1.2916,4.0107,8.859,-0.1683,1.364,-1.8943,-0.2307,-0.8982,0.211,12.677,-28.82,5.02,-34.91,49.17,-24.13,-8.29,2,1015.29,50.455,30.453497,-84.31869,57.44,NaN,,0,58.7871,,0 / 19,31604,2018-04-20 21:51:53:239,,,
0.8169,4.0931,8.5043,1.2232,3.8706,8.9308,0.0691,0.0303,0.0539,-0.2232,0.2341,0.0322,12.677,-28.86,6.2,-35.14,49.14,-23.24,-7.8,2,1015.29,52.745,30.453497,-84.31869,57.44,NaN,,0,58.7871,,0 / 19,31704,2018-04-20 21:51:53:339,,,
0.959,3.532,9.1329,0.9324,3.9247,8.9422,0.5873,-0.8245,0.7166,0.0955,0.4977,-0.0307,12.677,-26.95,6.63,-36.16,46.61,-23.58,-5.95,2,1015.29,52.745,30.453497,-84.31869,57.44,NaN,,0,58.7871,,0 / 19,31804,2018-04-20 21:51:53:439,,,
0.5209,5.0514,9.1161,0.8097,4.1399,8.8567,0.3181,-0.973,-1.1481,-0.0466,-0.2674,-0.266,12.677,-25.96,4.38,-35.89,49.35,-25.01,-4.73,2,1015.29,52.745,30.453497,-84.31869,57.44,NaN,,0,58.7871,,0 / 19,31903,2018-04-20 21:51:53:538,,,
0.4815,5.0562,10.1248,0.8023,3.9591,8.9397,-0.1706,0.1784,-1.7339,-0.1255,0.0732,-0.1699,12.677,-27.41,5.13,-36.92,48.15,-24.25,-5.68,2,1015.3,49.338,30.453497,-84.31869,57.44,NaN,,0,58.7871,,0 / 19,32004,2018-04-20 21:51:53:639,,,
1.2968,2.3196,10.1884,0.8139,4.0306,8.9066,-0.6236,1.739,-0.5465,0.1434,-0.0536,-0.0902,12.677,-27.43,4.2,-36.28,50.61,-24.26,-5.22,2,1015.3,49.338,30.453497,-84.31869,57.44,NaN,,0,58.7871,,0 / 19,32104,2018-04-20 21:51:53:739,,,
1.5284,3.2358,8.3064,0.7285,4.469,8.7025,-0.5541,0.7983,0.5542,0.1145,-0.0693,-0.3574,12.677,-27.44,1.12,-34.93,53.41,-27.1,-4.79,2,1015.29,49.338,30.453497,-84.31869,57.44,NaN,,0,58.7871,,0 / 19,32204,2018-04-20 21:51:53:839,,,
1.6203,3.6825,8.2669,0.6934,4.2983,8.7909,-0.981,0.5939,0.6317,-0.3217,-0.0548,-0.2701,12.677,-27.38,2.19,-35,53.29,-25.99,-4.51,2,1015.29,50.091,30.453497,-84.31869,57.44,NaN,,0,58.7871,,0 / 19,32304,2018-04-20 21:51:53:939,,,
1.2873,4.0846,7.2281,1.6702,3.8265,8.8772,-0.6459,0.0728,4.5971,-0.7121,-1.4475,0.1003,12.677,-29.11,2.31,-34.16,52.63,-22.96,-10.66,2,1015.29,50.091,30.453497,-84.31869,57.44,NaN,,0,58.7871,,0 / 19,32404,2018-04-20 21:51:54:039,,,
2.6816,3.4381,5.718,4.3522,2.9364,8.2869,1.3275,1.516,4.0484,-0.0568,-2.6536,0.4342,12.677,-37.49,9,-28.9,52.02,-18.25,-17.57,2,1015.28,50.091,30.453497,-84.31869,57.44,NaN,,0,58.7871,,0 / 19,32504,2018-04-20 21:51:54:139,,,
0.5734,-0.4892,2.7614,7.4287,3.1463,5.5814,-2.6416,4.0512,-3.9934,2.1166,-6.1738,1.7331,12.677,-43.93,9.13,-19.36,56.75,-17.42,-27.71,2,1015.27,50.091,30.453497,-84.31869,57.44,NaN,,0,58.7871,,0 / 19,32604,2018-04-20 21:51:54:239,,,
11.5259,-1.2959,7.0218,9.5991,1.9462,-0.5532,-10.448,0.3014,-8.3232,5.3505,-9.4627,3.4879,12.677,-44.59,25.03,19.75,27.32,-11.44,-93.3,2,1015.27,53.32,30.453497,-84.31869,57.44,NaN,,0,58.7871,,0 / 19,32704,2018-04-20 21:51:54:339,,,
12.5704,-1.8401,-11.5731,7.3925,-1.8036,-6.1914,-2.732,0.5737,2.1412,5.8805,-4.2478,-0.3033,12.677,-35.17,40.85,21.97,350.29,10.59,-129.95,2,1015.24,53.32,30.453497,-84.31869,57.44,NaN,,0,58.7871,,0 / 19,32803,2018-04-20 21:51:54:438,,,
4.4674,-5.4966,-16.672,8.0519,-1.8473,-5.2905,-2.6747,-1.7239,-2.4378,-0.618,1.2831,-0.3144,12.677,-37.23,38.76,17.6,350.23,10.85,-123.31,0,1015.24,53.32,30.453497,-84.31869,57.44,NaN,,0,58.7871,,0 / 19,32904,2018-04-20 21:51:54:539,,,
9.4023,-1.1105,-3.7156,8.9766,-0.5913,-3.9125,0.4501,-0.5222,3.9821,0.2585,1.6571,-1.4606,12.677,-40.26,37.93,15.03,347.86,7.85,-119.79,0,1015.29,48.579,30.453497,-84.31869,57.44,NaN,,0,58.7871,,0 / 19,33003,2018-04-20 21:51:54:638,,,
8.4437,-0.1521,-7.8297,9.1526,-0.181,-3.5261,-0.1934,-0.7325,-0.4822,0.6208,0.6606,-0.9621,12.677,-45.01,31.38,6.47,340.68,1.06,-111.07,0,1015.37,48.579,30.453497,-84.31869,57.44,NaN,,0,58.7871,,0 / 19,33104,2018-04-20 21:51:54:739,,,
5.9333,-0.6012,-2.5101,9.246,-0.5675,-3.2287,-0.3275,-0.6335,-0.2516,1.8345,0.5742,0.0837,2.113,-45.64,29.36,2.78,333.65,0.72,-111.53,0,1015.4,48.579,30.453497,-84.31869,57.44,NaN,,0,58.7871,,0 / 19,33203,2018-04-20 21:51:54:838,,,
8.2598,-1.8955,-2.3686,9.3371,-1.3713,-2.6784,-1.1185,-1.1924,0.6478,2.1749,0.7134,0.6576,2.113,-46.13,29.27,0.32,330.16,3.32,-109.25,0,1015.4,46.674,30.453497,-84.31869,57.44,NaN,,0,58.7871,,0 / 19,33304,2018-04-20 21:51:54:939,,,
10.4276,-0.659,-2.8112,9.1528,-3.0495,-1.7785,-0.5731,-0.8306,-0.5788,1.7087,0.1594,1.1634,2.113,-43.06,32.1,-7.78,322.03,12.72,-103.01,0,1015.33,46.674,30.453497,-84.31869,57.44,NaN,,0,58.7871,,0 / 19,33403,2018-04-20 21:51:55:038,,,
11.3588,-4.248,-0.3979,8.9506,-3.855,-1.1234,3.8461,0.062,8.4157,1.7864,0.4514,1.1355,2.113,-39.74,34.49,-15.26,309.55,23.14,-97.15,0,1015.33,46.674,30.453497,-84.31869,57.44,NaN,,0,58.7871,,0 / 19,33504,2018-04-20 21:51:55:139,,,
9.598,-2.6925,-2.9515,7.9931,-5.6866,0.0913,-4.4318,-2.0999,-0.941,1.1049,-0.0445,1.9829,2.113,-34.23,37.69,-18.2,302.31,35.43,-89.35,0,1015.36,49.841,30.453497,-84.31869,57.44,NaN,,0,58.7871,,0 / 19,33603,2018-04-20 21:51:55:238,,,
8.661,-7.5927,-0.3463,7.0361,-6.7894,0.796,-0.5706,-0.2696,-0.7156,1.0979,-0.5468,0.8295,2.113,-30.95,40.21,-19.97,296.42,41.21,-85.45,0,1015.3,49.841,30.453497,-84.31869,57.44,NaN,,0,58.7871,,0 / 19,33704,2018-04-20 21:51:55:339,,,
7.5496,-6.5512,1.6267,6.6682,-7.1607,0.7038,-0.4884,3.8113,0.5736,0.3529,-0.5645,0.8943,2.113,-30.01,40.63,-20.3,285.73,46.88,-83.97,0,1015.3,49.841,30.453497,-84.31869,57.44,NaN,,0,58.7871,,0 / 19,33803,2018-04-20 21:51:55:438,,,
5.1382,-5.9601,0.4165,5.7426,-7.9386,0.4869,1.0692,-4.5999,0.4015,0.2531,-0.5565,0.44,0.946,-26.7,43.03,-20.8,276.29,54.02,-85.15,0,1015.33,49.841,30.453497,-84.31869,57.44,NaN,,0,58.7871,,0 / 19,33904,2018-04-20 21:51:55:539,,,
5.8903,-2.7479,1.3581,5.6338,-7.9901,0.8087,-0.3652,7.3189,1.2306,0.4071,0.3276,0.2259,0.946,-26.66,43.39,-21.1,272.53,54.54,-81.83,0,1015.29,50.349,30.453497,-84.31869,57.44,NaN,,0,58.7871,,0 / 19,34004,2018-04-20 21:51:55:639,,,
8.4282,-9.7875,0.8963,6.2484,-7.5389,0.5997,-2.4498,2.0698,0.0767,-0.5059,-0.3129,-0.5838,0.946,-26.54,43.3,-22.22,278.6,52.07,-80.76,0,1015.29,50.349,30.453497,-84.31869,57.44,NaN,,0,58.7871,,0 / 19,34104,2018-04-20 21:51:55:739,,,
5.9559,-10.2583,-1.1092,6.4117,-7.3834,-0.7824,-0.4144,-1.4134,0.2757,0.3953,-1.1795,0.0406,0.946,-30.72,44.39,-16.24,290.51,48.57,-94.31,0,1015.54,50.349,30.453497,-84.31869,57.44,NaN,,0,58.7871,,0 / 19,34205,2018-04-20 21:51:55:840,,,
7.8659,-7.512,-0.657,6.7227,-6.9933,-1.4613,-0.407,-2.1345,-0.1142,-0.1588,-1.4733,-0.8642,0.946,-35.88,41.68,-12.83,287.32,45.47,-102.26,0,1015.54,51.215,30.453497,-84.31869,57.44,NaN,,0,58.7871,,0 / 19,34304,2018-04-20 21:51:55:939,,,
7.2213,-11.3274,-1.7269,6.7136,-6.8284,-2.1301,-1.098,1.8311,-0.307,0.493,-1.7111,0.0563,0.946,-37.16,38.99,-13.17,284.84,43.41,-102.98,0,1015.62,51.215,30.453497,-84.31869,57.44,NaN,,0,58.7871,,0 / 19,34404,2018-04-20 21:51:56:039,,,
7.7346,-8.6943,-1.7617,6.6674,-6.6975,-2.6318,-1.4528,-0.1071,0.1813,0.0177,-1.2281,-0.3194,0.946,-40.38,38.08,-6.05,280.81,43.06,-111.54,0,1015.81,51.215,30.453497,-84.31869,57.44,NaN,,0,58.7871,,0 / 19,34504,2018-04-20 21:51:56:139,,,
7.3502,-3.8712,-2.9563,6.4818,-6.792,-2.8445,-1.0702,-3.7442,-2.0142,2.1573,-2.1336,-0.5164,0.946,-44.19,33.56,-2.4,261.82,43.82,-113.69,0,1015.58,53.182,30.453497,-84.31869,57.44,NaN,,0,58.7871,,0 / 19,34603,2018-04-20 21:51:56:238,,,
6.0455,-7.5951,-2.0471,6.5643,-6.7986,-2.6316,0.7708,-0.7497,-2.0047,1.8471,-1.4228,-0.7742,0.946,-44.98,31.5,-2.21,251.89,43.87,-111.85,0,1015.58,53.182,30.453497,-84.31869,57.44,NaN,,0,58.7871,,0 / 19,34704,2018-04-20 21:51:56:339,,,
5.0571,-8.4908,-1.6873,6.5189,-7.0467,-2.0212,1.5028,1.548,-0.3647,1.6352,-0.9204,-0.0378,0.946,-46.83,27.84,-0.8,237.9,44.05,-109.53,0,1015.54,53.182,30.453497,-84.31869,57.44,NaN,,0,58.7871,,0 / 19,34804,2018-04-20 21:51:56:439,,,
6.7629,-10.0391,-1.4438,6.158,-7.4992,-1.441,-1.2277,-1.9748,0.5877,1.0893,-0.8151,0.0296,0.946,-46.7,29.2,0.31,218.06,48.92,-104.68,0,1015.54,55.156,30.453497,-84.31869,57.44,NaN,,0,58.7871,,0 / 19,34904,2018-04-20 21:51:56:539,,,
6.4633,-5.4063,-1.4582,6.1611,-7.5311,-1.2485,-1.4291,0.1192,-0.1571,1.3767,-1.1953,-0.1972,0.946,-46.5,28.08,2.58,199.68,50.15,-101.46,0,1015.56,55.156,30.453497,-84.31869,57.44,NaN,,0,58.7871,,0 / 19,35004,2018-04-20 21:51:56:639,,,
7.059,-6.8944,-0.8753,6.3217,-7.4626,-0.7622,0.5359,0.3905,-0.2938,1.2181,-0.8004,-0.2369,0.946,-47.1,26.97,3.82,191.17,49.76,-99.3,0,1015.56,55.156,30.453497,-84.31869,57.44,NaN,,0,58.7871,,0 / 19,35104,2018-04-20 21:51:56:739,,,
5.7912,-7.5361,-0.0993,6.4035,-7.4137,-0.5181,0.2535,0.4943,0.6439,0.7904,-0.3169,-0.2122,0.946,-47.36,26.05,4.36,179.39,49.09,-94.63,0,1015.55,55.117,30.453497,-84.31869,57.44,NaN,,0,58.7871,,0 / 19,35204,2018-04-20 21:51:56:839,,,
6.3224,-6.5272,-1.2087,6.3018,-7.5145,-0.234,-0.6478,-1.2978,1.0466,0.283,0.0408,0.2204,0.946,-47.83,26.03,3.89,173.72,50,-92.13,0,1015.55,55.117,30.453497,-84.31869,57.44,NaN,,0,58.7871,,0 / 19,35305,2018-04-20 21:51:56:940,,,
6.5504,-6.7511,-1.6837,6.1951,-7.6054,0.1226,-1.859,-1.0302,1.4112,0.0299,0.4719,0.0795,0.946,-46.71,26.64,3.92,169.68,50.62,-90.61,0,1015.56,55.117,30.453497,-84.31869,57.44,NaN,,0,58.7871,,0 / 19,35404,2018-04-20 21:51:57:039,,,
8.4425,-6.7896,-1.2375,6.1827,-7.6135,0.2138,-3.0372,-0.5111,1.6476,-0.1313,0.4252,0.0454,0.946,-46.87,26.83,1.63,171.39,50.83,-88.87,0,1015.56,55.117,30.453497,-84.31869,57.44,NaN,,0,58.7871,,0 / 19,35504,2018-04-20 21:51:57:139,,,
10.0863,-8.3235,-1.5266,6.2284,-7.5462,-0.7056,0.2044,0.2658,-2.3293,-0.026,-1.7428,0.0305,0.946,-46.43,26.93,3.99,167.95,50.18,-90.18,0,1015.38,55.302,30.453497,-84.31869,57.44,NaN,,0,58.7871,,0 / 19,35606,2018-04-20 21:51:57:241,,,
3.516,-8.7798,0.0639,6.1304,-7.4612,-1.7278,0.7939,3.4211,-1.1661,-0.6705,-1.8344,-0.1266,0.946,-46.19,24.44,12.81,179.91,49.51,-105.74,0,1015.1,55.302,30.453497,-84.31869,57.44,NaN,,0,58.7871,,0 / 19,35704,2018-04-20 21:51:57:339,,,
5.3388,-9.0735,-1.7857,6.3322,-6.6238,-3.502,-0.6372,-2.5334,-0.4258,-1.1778,-0.7525,-0.5912,0.946,-46.75,22.79,16.23,191.3,46.26,-113.38,0,1015.1,55.302,30.453497,-84.31869,57.44,NaN,,0,58.7871,,0 / 19,35804,2018-04-20 21:51:57:439,,,
4.7419,-5.3738,-2.894,5.856,-6.6537,-4.2038,2.3713,-0.854,-1.0782,0.5517,-1.0612,-0.0213,0.946,-43.83,20.05,22.3,198.16,41.55,-123.24,0,1015.2,53.373,30.453497,-84.31869,57.44,NaN,,0,58.7871,,0 / 19,35904,2018-04-20 21:51:57:539,,,
1.9617,-5.5158,-3.4169,5.8763,-6.7522,-4.0141,1.1375,-1.0283,-0.2441,0.1567,0.3573,0.1301,0.946,-43.18,21.44,23.16,196.18,43.5,-124.34,0,1015.38,53.373,30.453497,-84.31869,57.44,NaN,,0,58.7871,,0 / 19,36004,2018-04-20 21:51:57:639,,,
8.341,-8.0044,-6.8317,6.062,-6.5037,-4.1462,0.6383,-2.274,3.2618,-0.2986,0.0343,-0.1659,0.946,-43.77,19.59,21.88,201.07,41.53,-124.37,0,1015.38,53.373,30.453497,-84.31869,57.44,NaN,,0,58.7871,,0 / 19,36104,2018-04-20 21:51:57:739,,,
5.1048,-5.5315,-7.4171,5.8879,-6.7302,-4.0341,2.4051,0.6407,-2.5291,0.5462,-0.2816,0.2194,0.946,-44.48,20.59,22.76,197.64,43.32,-124.42,0,1015.39,54.784,30.453497,-84.31869,57.44,NaN,,0,58.7871,,0 / 19,36204,2018-04-20 21:51:57:839,,,
4.6094,-6.0203,-0.3356,6.0172,-7.0572,-3.1977,0.046,-1.519,-5.315,0.3016,0.9002,0.2821,0.946,-45.06,22.04,19.46,203.17,44.5,-122.02,0,1015.4,54.784,30.453497,-84.31869,57.44,NaN,,0,58.7871,,0 / 19,36305,2018-04-20 21:51:57:940,,,
7.8683,-8.1164,0.4765,6.2863,-7.0746,-2.5823,1.6578,-0.9587,-1.9676,0.4854,0.9889,-0.1918,0.946,-46.77,22.55,14.95,191.53,46.15,-112.33,0,1015.4,54.784,30.453497,-84.31869,57.44,NaN,,0,58.7871,,0 / 19,36404,2018-04-20 21:51:58:039,,,
7.1031,-6.7691,-1.6585,6.5814,-7.1466,-1.3588,-1.1227,-1.5659,1.7898,-0.0536,1.4512,0.0602,0.946,-48.4,23.31,10.35,191.93,46.63,-106.64,0,1015.45,54.784,30.453497,-84.31869,57.44,NaN,,0,58.7871,,0 / 19,36504,2018-04-20 21:51:58:139,,,
8.0665,-5.6699,-2.8964,6.4108,-7.38,-0.8204,-0.5996,-1.9251,1.8046,0.606,-0.0941,0.4117,0.946,-47.88,23.96,5.37,187.71,47.12,-99,0,1015.51,51.96,30.453497,-84.31869,57.44,NaN,,0,58.7871,,0 / 19,36604,2018-04-20 21:51:58:239,,,
7.1724,-5.1366,-2.6169,6.1875,-7.5933,-0.5421,-0.2828,-0.715,0.1409,0.8032,-0.2432,0.4561,0.946,-46.93,25.71,5.07,177.5,50.72,-95.01,0,1015.51,51.96,30.453497,-84.31869,57.44,NaN,,0,58.7871,,0 / 19,36704,2018-04-20 21:51:58:339,,,
6.9288,-7.4422,-1.4222,6.1047,-7.6791,-0.0276,-3.8534,2.3619,-0.2374,0.1247,0.3293,0.1005,0.946,-47.26,26.53,2.99,172.07,51.52,-90.26,0,1015.5,51.96,30.453497,-84.31869,57.44,NaN,,0,58.7871,,0 / 19,36804,2018-04-20 21:51:58:439,,,
9.8965,-10.0764,0.3337,6.2128,-7.5683,-0.5982,1.462,-0.1381,-2.6733,-0.4187,-0.9971,-0.2609,0.946,-47.11,27.07,3.98,181.56,50.49,-95.5,0,1015.5,51.601,30.453497,-84.31869,57.44,NaN,,0,58.7871,,0 / 19,36904,2018-04-20 21:51:58:539,,,
5.8688,-9.6647,0.2786,6.225,-6.9763,-2.9695,-0.2315,0.0928,-0.4644,-1.6017,-1.1646,-0.4264,0.946,-47.08,23.71,13.75,178.96,48.76,-106.14,0,1015.09,51.601,30.453497,-84.31869,57.44,NaN,,0,58.7871,,0 / 19,37004,2018-04-20 21:51:58:639,,,
6.8823,-7.8816,-2.7668,6.0093,-6.4755,-4.2653,1.3387,-1.6017,-0.2404,-0.0642,-1.1631,-0.4986,0.946,-45.4,20.36,20.59,197.3,42.94,-121.84,0,1014.98,51.601,30.453497,-84.31869,57.44,NaN,,0,58.7871,,0 / 19,37105,2018-04-20 21:51:58:740,,,
4.2632,-4.313,-3.3833,5.9292,-6.5208,-4.3081,2.2163,-2.5542,-0.1485,0.5269,-0.66,-0.2398,0.946,-44.49,19.52,22.58,201.04,41.31,-125.37,0,1015.12,49.871,30.453497,-84.31869,57.44,NaN,,0,58.7871,,0 / 19,37204,2018-04-20 21:51:58:839,,,
3.6759,-4.0783,-3.8943,5.9191,-6.918,-3.6526,-1.3546,3.369,1.5625,0.4626,-0.1812,0.1066,0.946,-44,21.26,20.59,197.2,43.62,-122.15,0,1015.12,49.871,30.453497,-84.31869,57.44,NaN,,0,58.7871,,0 / 19,37304,2018-04-20 21:51:58:939,,,
5.106,-4.8609,-6.8701,5.9686,-6.7581,-3.8651,-4.1878,7.0865,2.1172,-0.194,-0.2881,-0.2855,0.946,-44.09,21.38,23.45,193.76,43.54,-122.93,0,1015.18,49.871,30.453497,-84.31869,57.44,NaN,,0,58.7871,,0 / 19,37405,2018-04-20 21:51:59:040,,,Out
7.1724,-12.5687,-2.4706,5.9494,-6.9541,-3.5328,1.7764,-2.0006,-4.1473,-0.1613,0.7825,-0.1374,0.946,-44.63,22.66,21.53,191.96,45.14,-120.7,0,1015.18,51.354,30.453497,-84.31869,57.44,NaN,,0,58.7871,,0 / 19,37504,2018-04-20 21:51:59:139,,,Out
8.0402,-9.6912,-0.4147,6.0106,-7.2115,-2.8467,2.2608,-1.4544,-0.9812,0.1399,1.0888,-0.3847,0.946,-46.11,23.32,19.68,184.34,47.32,-115.34,0,1015.19,51.354,30.453497,-84.31869,57.44,NaN,,0,58.7871,,0 / 19,37603,2018-04-20 21:51:59:238,,,Out
4.0018,-5.6723,-1.3467,6.5536,-7.1014,-1.6904,-1.1546,0.3145,-0.3651,0.2203,1.3623,-0.0383,0.946,-47.52,22.6,13.92,175.59,46.38,-104.46,0,1015.3,51.354,30.453497,-84.31869,57.44,NaN,,0,58.7871,,0 / 19,37707,2018-04-20 21:51:59:342,,,Out
6.9635,-6.1491,-1.8001,6.4264,-7.3695,-0.7927,-0.2031,-2.0412,0.8801,0.5108,0.3691,0.4044,0.946,-47.38,23.38,8.83,178.04,47.07,-100.05,0,1015.44,51.354,30.453497,-84.31869,57.44,NaN,,0,58.7871,,0 / 19,37804,2018-04-20 21:51:59:439,,,Out
6.7928,-5.995,-2.1623,6.1887,-7.5947,-0.5059,-1.1707,-0.3714,-0.2665,0.4334,0.2273,0.5363,0.946,-47.88,26.25,6.45,174.36,50.73,-94.67,0,1015.44,47.79,30.453497,-84.31869,57.44,NaN,,0,58.7871,,0 / 19,37903,2018-04-20 21:51:59:538,,,Out
7.4971,-7.1014,-1.595,6.1099,-7.6725,-0.1948,-3.809,1.7691,0.316,-0.0251,0.3152,-0.0059,0.946,-47.38,27.26,5.81,169.52,51.53,-92.76,0,1015.49,47.79,30.453497,-84.31869,57.44,NaN,,0,58.7871,,0 / 19,38006,2018-04-20 21:51:59:641,,,Out
9.8821,-9.4552,-0.4663,6.2136,-7.565,-0.6306,2.0568,-1.6269,-2.5863,-0.5047,-0.5131,-0.2253,0.946,-47.3,26.17,6.61,173.69,50.46,-95.8,0,1015.49,47.79,30.453497,-84.31869,57.44,NaN,,0,58.7871,,0 / 19,38104,2018-04-20 21:51:59:739,,,Out
6.3487,-11.3117,-0.5694,6.379,-6.9025,-2.8107,-1.3303,0.7306,0.0586,-1.8055,-0.7745,-0.4339,0.946,-46.66,23.25,15.28,196.04,44.72,-113.78,0,1015.06,45.061,30.453497,-84.31869,57.44,NaN,,0,58.7871,,0 / 19,38206,2018-04-20 21:51:59:841,,,Out
7.5376,-7.5517,-3.1578,5.9675,-6.5967,-4.1363,1.7676,-1.4512,-0.7371,0.2645,-1.6124,-0.253,0.946,-46.33,20.9,18.24,203.15,42.5,-120.08,0,1014.96,45.061,30.453497,-84.31869,57.44,NaN,,0,58.7871,,0 / 19,38304,2018-04-20 21:51:59:939,,,Out
3.7666,-5.4063,-2.6805,5.856,-6.6123,-4.2685,2.5101,-1.6827,-1.2443,0.4933,-0.9094,-0.3278,0.946,-43.74,21.54,25.14,197.95,42.38,-126.09,0,1014.96,45.061,30.453497,-84.31869,57.44,NaN,,0,58.7871,,0 / 19,38404,2018-04-20 21:52:00:039,,,Out
3.2593,-4.0674,-3.3066,6.1073,-6.9963,-3.1605,-1.43,1.4307,2.0823,0.9403,0.7595,0.1473,0.946,-44.92,22.2,22.53,180.71,45.49,-117.36,0,1015.05,41.534,30.453497,-84.31869,57.44,NaN,,0,58.7871,,0 / 19,38504,2018-04-20 21:52:00:139,,,Out
7.4756,-8.3885,-5.2892,6.0534,-6.9515,-3.3569,-0.6205,2.1706,1.9159,-0.2693,-0.1777,0.0297,0.946,-44.84,23.34,21.03,186.02,45.49,-117.36,0,1015.14,41.534,30.453497,-84.31869,57.44,NaN,,0,58.7871,,0 / 19,38604,2018-04-20 21:52:00:239,,,Out
10.091,-11.2202,-5.2221,5.8005,-7.1409,-3.4056,1.3477,-2.143,-3.3166,0.2137,-0.2032,0.4083,0.946,-45.28,22.44,20.8,190.02,45.12,-119.01,0,1015.14,41.534,30.453497,-84.31869,57.44,NaN,,0,58.7871,,0 / 19,38704,2018-04-20 21:52:00:339,,,Out
3.966,-6.3321,-1.3779,6.1447,-7.1686,-2.6627,-1.4863,0.8585,-2.8909,0.6267,0.5977,-0.0978,0.946,-44.53,23.83,21.15,188.1,46.24,-118.17,0,1015.21,43.227,30.453497,-84.31869,57.44,NaN,,0,58.7871,,0 / 19,38803,2018-04-20 21:52:00:438,,,Out
5.2648,-7.0256,-1.475,6.423,-7.0858,-2.1846,0.3216,-0.1214,-0.9404,0.2309,0.9246,-0.3198,0.946,-46.6,22.84,15.63,179.96,46.25,-108.78,0,1015.21,43.227,30.453497,-84.31869,57.44,NaN,,0,58.7871,,0 / 19,38904,2018-04-20 21:52:00:539,,,Out
7.2094,-7.1881,-1.3731,6.5856,-7.1831,-1.1266,-0.5363,-1.271,1.459,0.4687,0.6085,0.1995,0.946,-48.29,23.43,12.45,178.54,46.09,-103.46,0,1015.3,43.227,30.453497,-84.31869,57.44,NaN,,0,58.7871,,0 / 19,39004,2018-04-20 21:52:00:639,,,Out
7.5591,-6.5464,-2.3194,6.4002,-7.383,-0.8744,-0.7474,-1.0287,1.2184,0.5521,0.0355,0.4297,0.946,-48.25,25.65,10.51,167.46,48.82,-97.78,0,1015.47,46.173,30.453497,-84.31869,57.44,NaN,,0,58.7871,,0 / 19,39104,2018-04-20 21:52:00:739,,,Out
6.3964,-7.5927,-0.296,6.3697,-7.4536,-0.3274,-0.7341,0.8398,1.5747,0.2047,0.498,-0.2046,0.946,-47.28,25.94,8.69,161.01,49.45,-92.94,0,1015.43,46.173,30.453497,-84.31869,57.44,NaN,,0,58.7871,,0 / 19,39206,2018-04-20 21:52:00:841,,,Out
10.51,-9.6322,-1.3731,6.5171,-7.2634,-1.0033,-0.42,-0.9468,-2.3331,-0.5882,-0.7293,-0.3011,0.946,-47.93,25.72,8.01,166.7,49.1,-94,0,1015.43,46.173,30.453497,-84.31869,57.44,NaN,,0,58.7871,,0 / 19,39304,2018-04-20 21:52:00:939,,,Out
4.3086,-8.0959,1.0642,6.2689,-7.2814,-1.9795,-2.1244,3.1576,-0.3401,-0.9712,-1.334,0.2257,0.946,-48.1,24.7,12.32,166.96,47.77,-98.75,0,1015.01,46.173,30.453497,-84.31869,57.44,NaN,,0,58.7871,,19-Sep,39404,2018-04-20 21:52:01:039,,,Out
7.6976,-8.303,-1.6885,6.151,-6.9665,-3.1417,0.555,0.5617,-1.4292,-0.2187,-0.9158,-0.4053,0.946,-45.66,23.85,16.94,188.68,46.83,-113.72,0,1015.01,49.822,30.453497,-84.31869,57.44,NaN,,0,58.7871,,19-Sep,39506,2018-04-20 21:52:01:141,,,Out
3.6795,-7.9202,-2.4801,6.3503,-6.8124,-3.0823,0.0087,1.3302,-1.4282,0.9982,-0.9522,-0.9388,0.946,-45.79,22.06,21.03,183.55,43.98,-115.89,0,1014.79,49.822,30.453497,-84.31869,57.44,NaN,,0,58.7871,,19-Sep,39604,2018-04-20 21:52:01:239,,,Out
2.3545,-9.3168,-4.4628,6.6818,-7.1823,-0.0599,-1.3736,2.9185,4.4485,2.7161,1.3349,0.0631,0.946,-46.11,23.85,18.67,161.03,45.3,-105.22,0,1014.73,49.822,30.453497,-84.31869,57.44,NaN,,0,58.7871,,19-Sep,39704,2018-04-20 21:52:01:339,,,Out
10.9875,-8.9363,-4.3189,6.7773,-7.0044,1.1147,-11.4998,-4.0082,6.5671,0.9097,1.8909,-0.3471,0.946,-48.04,24.76,7.94,134.45,45.56,-80.66,0,1014.81,52.724,30.453497,-84.31869,57.44,NaN,,0,58.7871,,19-Sep,39804,2018-04-20 21:52:01:439,,,Out
15.8734,-7.9117,5.6749,9.7411,-1.0307,0.5339,-5.3076,4.7049,-3.5489,-1.3443,0.2005,-7.217,0.946,-49.32,-1.34,5.61,125.12,6.03,-86.86,0,1014.81,52.724,30.453497,-84.31869,57.44,NaN,,0,58.7871,,19-Sep,39904,2018-04-20 21:52:01:539,,,Out
12.9023,-8.4451,2.5395,4.913,8.3219,1.6866,1.3694,11.5254,2.7132,-1.5546,1.3801,-8.8459,0.946,-16.16,-35.33,-0.01,177.97,-27.92,-87.02,2,1014.91,52.724,30.453497,-84.31869,57.44,NaN,,0,58.7871,,19-Sep,40004,2018-04-20 21:52:01:639,,,Out
0.0554,-1.881,0.7415,0.6521,9.291,3.0804,4.8254,5.0018,3.5353,-1.7991,2.2175,-6.9312,0.946,7.59,-34.44,-5.03,197.64,-58.03,-71.05,2,1014.91,44.154,30.453497,-84.31869,57.44,NaN,,0,58.7871,,19-Sep,40104,2018-04-20 21:52:01:739,,,Out
-5.8452,3.9859,0.3121,-2.8892,6.9104,6.3352,5.527,5.6914,6.3241,-4.4052,1.4196,-0.7368,0.946,27.76,-20.66,-8.68,286.95,-60.26,24.15,2,1015,44.154,30.453497,-84.31869,57.44,NaN,,0,58.7871,,19-Sep,40204,2018-04-20 21:52:01:839,,,Out
-0.3899,2.328,8.5703,-1.648,5.9411,7.6305,-0.8692,2.6184,-3.4373,-2.6279,-1.4676,1.4485,87.684,24.74,-16.18,-21.79,279.99,-37.27,12.19,2,1015.09,44.154,30.453497,-84.31869,57.44,NaN,,0,58.7871,,19-Sep,40304,2018-04-20 21:52:01:939,,,Out
-0.8567,3.3021,11.2379,-0.1133,5.9284,7.8152,-1.8616,-2.5453,-1.4683,0.2774,-0.7309,1.0238,443.704,18.29,-18.74,-24.17,268.45,-37.18,0.83,2,1015.09,44.154,30.453497,-84.31869,57.44,NaN,,0,58.7871,,0 / 19,40404,2018-04-20 21:52:02:039,,,Out
0.5913,8.0409,10.2255,-0.7542,5.8646,7.8278,-0.239,-1.8046,0.1986,-0.5912,1.1067,-0.3157,337.004,18.36,-19.99,-23.17,266.75,-38.86,0.71,2,1015.14,47.145,30.453497,-84.31869,57.44,NaN,,0,58.7871,,0 / 19,40504,2018-04-20 21:52:02:139,,,
-1.635,7.3739,7.7523,-0.7012,5.5138,8.0835,1.0882,-0.6209,0.2575,-0.7195,-0.1744,-0.0724,337.004,21.3,-17.98,-23.13,267.01,-34.2,4.96,2,1015.17,47.145,30.453497,-84.31869,57.44,NaN,,0,58.7871,,0 / 19,40606,2018-04-20 21:52:02:241,,,
0.8826,2.983,11.0472,0.762,5.1934,8.2876,-1.3239,0.3415,-0.8089,0.3768,-0.9916,0.5135,183.82,16.47,-17.38,-27.23,267,-31.96,-5.25,2,1015.17,47.145,30.453497,-84.31869,57.44,NaN,,0,58.7871,,0 / 19,40705,2018-04-20 21:52:02:340,,,
1.729,4.9972,8.2848,1.3907,5.5213,7.9886,-0.4104,0.0934,0.1264,0.6383,-1.2452,-0.052,66.556,13.55,-18.57,-27,263.54,-34.25,-9.88,2,1015.19,42.013,30.453497,-84.31869,57.44,NaN,,0,58.7871,,0 / 19,40804,2018-04-20 21:52:02:439,,,
0.9698,5.0731,6.9858,1.054,5.1759,8.2665,-0.1175,-0.0534,1.8858,-0.2326,0.0788,0.0338,47.54,14.26,-17.97,-28.35,266.18,-32.64,-7.52,2,1015.21,42.013,30.453497,-84.31869,57.44,NaN,,0,58.7871,,0 / 19,40904,2018-04-20 21:52:02:539,,,
1.1679,5.1923,6.5876,1.2705,5.1141,8.2745,0.0134,-0.0799,0.7703,-0.1198,-0.3472,0.0981,42.258,13.5,-17.3,-29.83,269.74,-31.42,-8.73,2,1015.21,42.013,30.453497,-84.31869,57.44,NaN,,0,58.7871,,0 / 19,41005,2018-04-20 21:52:02:640,,,
1.6263,6.3072,8.6723,1.3255,4.8509,8.4231,-0.9182,-1.1815,-0.8184,-0.0635,0.3072,0.3479,40.145,12.49,-17.41,-28.98,264.65,-29.64,-8.94,2,1015.23,39.324,30.453497,-84.31869,57.44,NaN,,0,58.7871,,0 / 19,41104,2018-04-20 21:52:02:739,,,
2.3974,6.424,9.4711,1.3483,4.7993,8.449,0.1409,-1.0154,-0.9416,-0.3213,0.2797,0.295,34.862,12.68,-18.65,-28.86,260.65,-30.59,-9.58,2,1015.24,39.324,30.453497,-84.31869,57.44,NaN,,0,58.7871,,0 / 19,41204,2018-04-20 21:52:02:839,,,
2.4082,2.8951,11.6145,0.9892,4.3841,8.72,-0.3827,2.2578,-1.5308,-0.7178,0.7915,0.2195,34.862,12.86,-15.75,-28.94,262.64,-26.54,-6.47,2,1015.24,39.324,30.453497,-84.31869,57.44,NaN,,0,58.7871,,0 / 19,41304,2018-04-20 21:52:02:939,,,
-0.3995,3.6139,6.8419,0.7344,4.6584,8.6021,-0.3827,0.6364,-0.0726,0.293,-0.4314,0.1389,34.862,14.03,-17.16,-27.01,260.39,-28.35,-4.88,2,1015.24,44.437,30.453497,-84.31869,57.44,NaN,,0,58.7871,,0 / 19,41405,2018-04-20 21:52:03:040,,,
0.4051,3.6392,8.0546,0.7947,4.8965,8.4634,0.4336,0.1586,2.6256,0.4522,-0.1966,-0.1606,43.314,13.96,-18.13,-26.99,260.24,-29.94,-5.36,2,1015.24,44.437,30.453497,-84.31869,57.44,NaN,,0,58.7871,,0 / 19,41504,2018-04-20 21:52:03:139,,,
0.2165,5.7461,6.0527,0.4391,4.3329,8.7903,0.232,0.1667,1.4243,-1.0875,0.4164,0.1559,43.314,13.88,-17.31,-26.61,263.83,-30.09,-4.2,2,1015.25,44.437,30.453497,-84.31869,57.44,NaN,,0,58.7871,,0 / 19,41604,2018-04-20 21:52:03:239,,,
0.2714,3.8101,9.1856,0.7991,4.312,8.7752,-0.1901,-1.2813,0.0645,0.3158,-0.8239,-0.088,43.314,13.58,-16.41,-27.82,258.81,-24.86,-2.35,2,1015.27,44.437,30.453497,-84.31869,57.44,NaN,,0,58.7871,,0 / 19,41704,2018-04-20 21:52:03:339,,,
0.4708,5.3897,8.5439,0.9338,4.3071,8.7643,-0.3774,-1.4317,-1.3082,-0.0831,-0.2496,0.1311,48.596,12.69,-16.62,-28.3,257.15,-26.08,-5.2,2,1015.27,43.991,30.453497,-84.31869,57.44,NaN,,0,58.7871,,0 / 19,41804,2018-04-20 21:52:03:439,,,
1.7421,2.2245,10.072,1.1578,4.0434,8.8626,-0.4353,1.4783,0.4521,-0.2574,-0.0839,-0.1839,43.314,12.01,-15.74,-29.92,260.82,-25.07,-7.59,2,1015.27,43.991,30.453497,-84.31869,57.44,NaN,,0,58.7871,,0 / 19,41904,2018-04-20 21:52:03:539,,,
1.9152,3.1781,8.7826,1.357,4.3314,8.6968,-0.8266,1.1698,-0.1191,0.4774,-0.4311,-0.2504,40.145,10.84,-15.23,-29.06,264.21,-26.2,-8.87,2,1015.27,43.991,30.453497,-84.31869,57.44,NaN,,0,58.7871,,0 / 19,42003,2018-04-20 21:52:03:638,,,
2.1838,3.52,8.31,1.1828,4.3171,8.7293,0.1649,0.5201,0.9583,-0.3096,-0.0258,-0.431,40.145,12.02,-14.98,-29.14,264.46,-26.11,-7.72,2,1015.27,47.454,30.453497,-84.31869,57.44,NaN,,0,58.7871,,0 / 19,42104,2018-04-20 21:52:03:739,,,
1.0282,3.78,7.2653,1.1751,3.6375,9.0346,-0.2699,-0.0681,0.9218,-0.5604,-0.0459,0.0615,40.145,11.24,-12.79,-29.97,263.94,-21.76,-7.41,2,1015.27,47.454,30.453497,-84.31869,57.44,NaN,,0,58.7871,,0 / 19,42203,2018-04-20 21:52:03:838,,,
1.4055,3.5537,8.4912,1.2268,3.5437,9.065,-0.1722,-0.2674,0.6268,-0.1387,-0.0158,0.2209,40.145,11.04,-11.95,-30.82,268.95,-21.76,-7.41,2,1015.27,47.454,30.453497,-84.31869,57.44,NaN,,0,58.7871,,0 / 19,42304,2018-04-20 21:52:03:939,,,
1.4305,4.4988,10.1176,1.1489,3.3981,9.1307,-0.455,-0.5389,-1.0642,-0.0831,0.2251,0.4307,40.145,10.1,-11.6,-30.17,265.2,-20.72,-7.43,2,1015.29,44.937,30.453497,-84.31869,57.44,NaN,,0,58.7871,,0 / 19,42404,2018-04-20 21:52:04:039,,,
1.2753,4.388,10.6633,1.1315,3.6353,9.041,-0.4923,-0.2438,0.0918,0.431,0.2404,0.5135,40.145,8.53,-13.54,-28.71,257.61,-21.75,-7.13,2,1015.29,44.937,30.453497,-84.31869,57.44,NaN,,0,58.7871,,0 / 19,42503,2018-04-20 21:52:04:138,,,
1.6371,3.9366,9.0165,1.1053,3.5038,9.096,0.0523,0.5496,1.7452,-0.1879,0.6411,0.4021,40.145,8.06,-13.4,-29.58,262.92,-21.74,-9.01,2,1015.27,44.937,30.453497,-84.31869,57.44,NaN,,0,58.7871,,0 / 19,42604,2018-04-20 21:52:04:239,,,
-0.033,3.2057,7.9898,1.5127,3.5941,9.0017,0.9091,0.9465,-0.3231,0.1063,-0.6932,0.0953,40.145,9.05,-13.36,-28.64,260.82,-21.37,-7.19,2,1015.27,45.92,30.453497,-84.31869,57.44,NaN,,0,58.7871,,0 / 19,42703,2018-04-20 21:52:04:338,,,
1.5022,2.6037,9.8213,1.1617,3.3244,9.1562,0.2112,0.3111,0.9018,-0.4377,0.6173,0.1178,28.524,8.27,-12.75,-29.31,256.31,-19.81,-7.23,2,1015.28,45.92,30.453497,-84.31869,57.44,NaN,,0,58.7871,,0 / 19,42804,2018-04-20 21:52:04:439,,,
0.5627,2.6447,9.0729,0.8972,3.3412,9.1797,-0.0369,-0.0441,0.8784,0.1783,0.1822,0.0591,28.524,9.43,-11.69,-28.96,261.55,-19.91,-5.58,2,1015.28,45.92,30.453497,-84.31869,57.44,NaN,,0,58.7871,,0 / 19,42903,2018-04-20 21:52:04:538,,,
0.8826,3.3249,8.424,0.9082,3.6423,9.0634,-0.1826,-0.7145,-0.7295,0.501,0.003,0.015,28.524,8.56,-11.7,-28.51,266.32,-21.79,-5.72,2,1015.28,48.365,30.453497,-84.31869,57.44,NaN,,0,58.7871,,0 / 19,43004,2018-04-20 21:52:04:639,,,
0.2272,4.2074,10.6429,0.9489,3.9885,8.9122,1.2426,-1.0577,-0.2806,0.3214,-0.1313,-0.2284,28.524,9.37,-11.8,-28.04,266.66,-22.66,-5.68,2,1015.28,48.365,30.453497,-84.31869,57.44,NaN,,0,58.7871,,0 / 19,43103,2018-04-20 21:52:04:738,,,
1.0282,5.155,9.4771,1.3601,3.8224,8.9317,-0.3569,2.2704,-2.1274,-0.3963,0.1703,-0.2996,28.524,9.15,-12.03,-29.28,268.24,-22.93,-8.66,2,1015.29,48.365,30.453497,-84.31869,57.44,NaN,,0,58.7871,,0 / 19,43204,2018-04-20 21:52:04:839,,,
0.7143,2.9047,8.4887,1.3388,3.9358,8.8856,-0.6448,0.0276,0.0342,0.4982,-0.2525,-0.0241,28.524,9.98,-11.26,-28.78,270.09,-21.86,-7.34,2,1015.29,48.365,30.453497,-84.31869,57.44,NaN,,0,58.7871,,0 / 19,43303,2018-04-20 21:52:04:938,,,
1.982,3.6849,9.2336,1.2295,3.9522,8.8941,0.1145,0.5452,0.0572,-0.076,0.2032,-0.1466,28.524,9.81,-11.71,-28.95,270.09,-23.9,-8.75,2,1015.29,43.66,30.453497,-84.31869,57.44,NaN,,0,58.7871,,0 / 19,43404,2018-04-20 21:52:05:039,,,
1.4365,4.0618,7.8638,1.2465,4.0182,8.8621,-0.1898,-0.1605,1.2835,0.1056,-0.0625,-0.0842,166.917,10.97,-10.84,-29.06,274.21,-24.18,-8.01,2,1015.29,43.66,30.453497,-84.31869,57.44,NaN,,0,58.7871,,0 / 19,43503,2018-04-20 21:52:05:138,,,
1.2025,3.951,7.8554,1.0512,4.0902,8.8545,-0.1087,-0.4584,-0.3824,0.1824,0.258,0.0354,166.917,12.61,-11.17,-29.5,274.79,-24.64,-6.77,2,1015.29,43.66,30.453497,-84.31869,57.44,NaN,,0,58.7871,,0 / 19,43604,2018-04-20 21:52:05:239,,,
1.1225,4.4928,9.3583,0.7421,4.3396,8.7666,-0.3926,-1.2714,-0.6848,0.4828,0.6266,0.1477,166.917,12.88,-12.48,-28.56,275.69,-26.25,-4.84,2,1015.29,44.494,30.453497,-84.31869,57.44,NaN,,0,58.7871,,0 / 19,43704,2018-04-20 21:52:05:339,,,
1.3159,5.2994,9.1664,0.8148,4.4095,8.7252,-0.5466,-0.6305,-1.1023,0.1,-0.2774,0.0261,166.917,13.96,-13.51,-27.79,268.06,-26.71,-5.34,2,1015.3,44.494,30.453497,-84.31869,57.44,NaN,,0,58.7871,,0 / 19,43803,2018-04-20 21:52:05:438,,,
1.304,4.7047,9.9941,0.6206,4.4877,8.7012,0.2368,1.6618,0.6009,0.3877,0.4705,0.0577,166.917,14.34,-13.32,-28.24,269.4,-25.77,-5.5,2,1015.3,44.494,30.453497,-84.31869,57.44,NaN,,0,58.7871,,0 / 19,43904,2018-04-20 21:52:05:539,,,
-0.0437,3.6259,6.9499,1.0047,4.5796,8.6171,-0.4869,0.9954,-0.8555,0.2488,-0.4883,0.3325,166.917,14.65,-14.52,-27.45,264.9,-27.22,-4.08,2,1015.28,47.393,30.453497,-84.31869,57.44,NaN,,0,58.7871,,0 / 19,44003,2018-04-20 21:52:05:638,,,
1.495,3.4682,9.6222,1.0274,4.2634,8.7752,0.8065,0.8084,0.3075,-0.1324,-0.0327,0.063,166.917,13.26,-14.9,-28.91,265.16,-26.21,-6.34,2,1015.28,47.393,30.453497,-84.31869,57.44,NaN,,0,58.7871,,0 / 19,44104,2018-04-20 21:52:05:739,,,
0.7406,4.0846,8.779,1.0688,4.1683,8.8158,0.2909,0.3738,0.0582,-0.1698,-0.1692,-0.1159,472.228,14.33,-14.08,-29.03,266.19,-25.14,-6.91,2,1015.28,47.393,30.453497,-84.31869,57.44,NaN,,0,58.7871,,0 / 19,44203,2018-04-20 21:52:05:838,,,
0.6833,3.6428,9.0033,0.9937,4.4024,8.7102,0.5695,-0.6258,0.2777,0.4695,-0.0902,-0.1825,581.041,13.87,-14.67,-29.05,266.05,-26.66,-6.51,2,1015.28,47.393,30.453497,-84.31869,57.44,NaN,,0,58.7871,,0 / 19,44304,2018-04-20 21:52:05:939,,,
0.429,5.0033,8.4024,1.0549,4.7968,8.492,0.8026,-1.0906,0.1503,0.2806,-0.0881,-0.0043,581.041,14.95,-15.49,-29.1,268.83,-28.32,-6.72,2,1015.29,46.44,30.453497,-84.31869,57.44,NaN,,0,58.7871,,0 / 19,44403,2018-04-20 21:52:06:038,,,
0.1771,5.8497,8.46,1.0842,4.6213,8.5851,-0.5588,-0.443,-1.7833,-0.2804,-0.0491,0.0742,544.065,14.79,-16.56,-28.77,262.84,-28.1,-7.2,2,1015.29,46.44,30.453497,-84.31869,57.44,NaN,,0,58.7871,,0 / 19,44504,2018-04-20 21:52:06:139,,,
1.1321,3.0203,9.9041,1.0128,4.7054,8.5481,-0.451,1.1484,-0.2468,0.4679,-0.1833,0.0018,544.065,15.85,-15.6,-28.27,262.6,-26.81,-5.72,2,1015.29,46.44,30.453497,-84.31869,57.44,NaN,,0,58.7871,,0 / 19,44604,2018-04-20 21:52:06:239,,,
1.4723,3.709,8.5475,1.1979,5.0509,8.324,-0.5601,0.9975,0.0903,0.6934,-0.4552,-0.1071,492.3,13.95,-17.56,-27.43,261.34,-30.99,-8.19,2,1015.29,45.689,30.453497,-84.31869,57.44,NaN,,0,58.7871,,0 / 19,44704,2018-04-20 21:52:06:339,,,
0.6677,4.1292,7.7751,0.7715,4.8807,8.4746,0.0452,0.7983,0.7666,-0.2417,0.1157,-0.1423,437.365,15.48,-16.89,-26.16,262.88,-30.68,-5.76,2,1015.29,45.689,30.453497,-84.31869,57.44,NaN,,0,58.7871,,0 / 19,44804,2018-04-20 21:52:06:439,,,
0.6833,3.7861,8.7274,0.8555,4.8491,8.4847,-0.3516,0.0146,0.3306,0.0704,0.0342,0.084,437.365,15.62,-16.47,-26.76,265.63,-29.62,-5.76,2,1015.28,45.689,30.453497,-84.31869,57.44,NaN,,0,58.7871,,0 / 19,44904,2018-04-20 21:52:06:539,,,
1.224,4.9021,8.1577,0.5725,4.8638,8.5001,0.0867,-0.4572,1.141,-0.0208,0.508,0.0288,343.342,16.09,-16.4,-26.5,264.95,-29.72,-3.85,2,1015.28,47.932,30.453497,-84.31869,57.44,NaN,,0,58.7871,,0 / 19,45004,2018-04-20 21:52:06:639,,,
0.4338,5.2874,7.6407,0.3099,4.641,8.6372,-1.0939,-0.1308,-0.8276,-0.2137,0.1365,0.2312,273.617,18.31,-15.8,-26.19,264.87,-29,-1.96,2,1015.27,47.932,30.453497,-84.31869,57.44,NaN,,0,58.7871,,0 / 19,45104,2018-04-20 21:52:06:739,,,
0.6451,4.689,8.5415,0.4166,4.7992,8.5458,-0.2726,-0.3071,-0.1486,0.2633,-0.0842,0.1558,245.094,17.47,-16.9,-24.95,260.59,-29.29,-2.79,2,1015.27,47.932,30.453497,-84.31869,57.44,NaN,,0,58.7871,,0 / 19,45203,2018-04-20 21:52:06:838,,,
0.6033,4.8118,9.6726,0.1876,4.626,8.6488,-0.0443,0.9804,-0.5453,-0.3275,0.3937,-0.0878,218.683,17.46,-17.97,-24.93,257.86,-29.23,-2.69,2,1015.27,43.851,30.453497,-84.31869,57.44,NaN,,0,58.7871,,0 / 19,45303,2018-04-20 21:52:06:938,,,
-0.0127,3.1624,9.4567,0.2674,4.8904,8.4999,0.3694,1.0196,0.5573,0.4819,-0.1,0.097,190.159,16.55,-18.51,-23.78,254.93,-29.9,-1.8,2,1015.28,43.851,30.453497,-84.31869,57.44,NaN,,0,58.7871,,0 / 19,45404,2018-04-20 21:52:07:039,,,
-0.2717,3.9293,9.0393,1.1347,5.7004,7.9028,1.2944,1.9011,-0.7896,0.9852,-0.3222,1.1019,170.086,15.28,-20.76,-22.69,249.91,-32.28,-3.86,2,1015.28,43.851,30.453497,-84.31869,57.44,NaN,,0,58.7871,,0 / 19,45504,2018-04-20 21:52:07:139,,,
-0.1798,2.1667,4.0868,5.5703,5.8596,5.5563,0.0462,2.5788,3.5502,1.2957,-3.2124,3.2513,139.45,2.83,-27.93,-18.03,220.1,-39.71,-23.35,2,1015.28,43.851,30.453497,-84.31869,57.44,NaN,,0,58.7871,,0 / 19,45603,2018-04-20 21:52:07:238,,,
7.0685,2.8602,2.7026,7.8919,4.3114,3.9198,-0.1088,2.627,2.2749,-0.1766,-3.8608,3.4263,139.45,-19.92,-26.79,-11.77,187.51,-26.07,-63.59,2,1015.26,48.017,30.453497,-84.31869,57.44,NaN,,0,58.7871,,0 / 19,45703,2018-04-20 21:52:07:338,,,
8.2431,0.6365,1.4588,9.5599,-0.1763,-2.194,-2.1994,0.6076,-2.2429,1.6245,-4.8127,3.8997,139.45,-31.83,-22.8,-2.7,182.23,-13.22,-85.69,2,1015.26,48.017,30.453497,-84.31869,57.44,NaN,,0,58.7871,,0 / 19,45804,2018-04-20 21:52:07:439,,,
16.1575,-1.2839,2.6223,8.9177,-1.9453,-3.5954,-7.9922,-1.1445,-2.9173,1.2712,-2.7894,2.728,139.45,-39.64,-9.26,18.77,171.39,11.44,-111.96,2,1015.26,48.017,30.453497,-84.31869,57.44,NaN,,0,58.7871,,0 / 19,45904,2018-04-20 21:52:07:539,,,
14.9364,-3.9711,-6.5091,8.2559,-2.9438,-4.4057,-4.0889,0.6932,2.1122,0.6591,-0.9183,0.1524,139.45,-39.9,-3.46,25.53,166.52,17.46,-118.09,0,1015.24,48.771,30.453497,-84.31869,57.44,NaN,,0,58.7871,,0 / 19,46003,2018-04-20 21:52:07:638,,,
7.7394,-4.3082,-11.4748,8.5529,-2.3733,-4.1775,1.5309,0.9755,-1.3642,-0.3089,-0.7256,-0.347,139.45,-40.32,-6.2,21.78,172.52,14,-116.03,0,1015.24,48.771,30.453497,-84.31869,57.44,NaN,,0,58.7871,,0 / 19,46104,2018-04-20 21:52:07:739,,,
13.3869,-0.4194,1.9266,9.0329,-1.3357,-3.586,1.3915,0.1805,2.5602,-1.0349,1.7339,-0.9058,139.45,-39.91,-8.75,19.54,183.58,12.38,-118.04,0,1015.27,48.771,30.453497,-84.31869,57.44,NaN,,0,58.7871,,0 / 19,46204,2018-04-20 21:52:07:839,,,
6.9408,-1.9063,-5.1369,9.3276,-0.9935,-2.8714,0.574,0.3737,-0.5273,0.3556,0.6277,-0.2548,15.847,-41.32,-10.48,12.83,186.54,6.09,-109.81,0,1015.39,45.331,30.453497,-84.31869,57.44,NaN,,0,58.7871,,0 / 19,46303,2018-04-20 21:52:07:938,,,
9.0453,-1.0034,-2.7728,9.4219,-1.4158,-2.3366,0.1123,-0.0299,-0.5832,0.5678,0.8616,0.5021,15.847,-42.53,-8.15,11.29,178.7,8.3,-103.93,0,1015.35,45.331,30.453497,-84.31869,57.44,NaN,,0,58.7871,,0 / 19,46404,2018-04-20 21:52:08:039,,,
8.6788,-2.1688,-1.054,9.3021,-2.8647,-1.2248,0.2851,0.1017,0.8785,1.1395,0.7207,1.2801,15.847,-43.7,-6.58,9.57,174.04,11.62,-100.69,0,1015.35,45.331,30.453497,-84.31869,57.44,NaN,,0,58.7871,,0 / 19,46504,2018-04-20 21:52:08:139,,,
8.2133,-3.7207,0.8891,8.9962,-3.8663,-0.5973,-1.6809,-1.5328,0.2492,0.3737,0.5311,1.8139,15.847,-46.05,1.29,7.32,167.22,23.21,-93.8,0,1015.37,44.478,30.453497,-84.31869,57.44,NaN,,0,58.7871,,0 / 19,46604,2018-04-20 21:52:08:239,,,
6.7558,-5.275,-1.024,7.6485,-6.1405,-0.1731,-2.7832,1.3226,0.797,-0.0031,0.2208,2.4249,15.847,-47.58,11.73,5.39,169.32,38.75,-91.3,0,1015.37,44.478,30.453497,-84.31869,57.44,NaN,,0,58.7871,,0 / 19,46703,2018-04-20 21:52:08:338,,,
6.8799,-7.9214,0.0087,6.0388,-7.7105,-0.5631,1.5924,-0.981,-0.8995,-0.0771,-0.2909,1.3076,15.847,-45.61,22.55,6.96,173.1,51.81,-95.33,0,1015.39,44.478,30.453497,-84.31869,57.44,NaN,,0,58.7871,,0 / 19,46804,2018-04-20 21:52:08:439,,,
5.2135,-7.9214,0.4489,5.7158,-7.9609,-0.4359,0.4051,-0.4942,0.3393,0.0477,0.2457,0.7214,15.847,-44.94,24.96,8.1,169.45,51.81,-95.33,0,1015.42,44.478,30.453497,-84.31869,57.44,NaN,,0,58.7871,,0 / 19,46904,2018-04-20 21:52:08:539,,,
4.8888,-7.5144,0.0219,5.3881,-8.1975,-0.0788,-2.573,0.2418,0.9156,-0.0991,0.6028,0.3843,0.946,-43.35,27.23,4.35,173.23,55.46,-92.13,0,1015.33,46.205,30.453497,-84.31869,57.44,NaN,,0,58.7871,,0 / 19,47004,2018-04-20 21:52:08:639,,,
5.026,-7.341,0.6972,5.1466,-8.3456,-0.3151,1.3202,-6.3431,-0.5963,-0.445,0.0108,0.4498,0.946,-43.25,27.98,5.91,171.35,58.29,-93.5,0,1015.33,46.205,30.453497,-84.31869,57.44,NaN,,0,58.7871,,0 / 19,47103,2018-04-20 21:52:08:738,,,
3.2832,-3.0477,-0.6666,5.7759,-7.9085,-0.5755,0.6652,16.9305,-1.2005,-0.1488,0.302,-0.9844,0.946,-45.12,25.89,4.55,178.61,53.72,-95.69,0,1015.38,46.205,30.453497,-84.31869,57.44,NaN,,0,58.7871,,0 / 19,47204,2018-04-20 21:52:08:839,,,
5.7781,-10.0921,-0.5766,5.9387,-7.7221,-1.1568,-0.9509,-0.586,0.9362,-0.6217,-0.3997,-0.1936,0.946,-43.8,25.1,4.65,180.8,53.1,-96.85,0,1015.38,44.084,30.453497,-84.31869,57.44,NaN,,0,58.7871,,0 / 19,47304,2018-04-20 21:52:08:939,,,
6.3033,-5.9059,-0.9868,6.2688,-7.3932,-1.5094,1.0704,-0.96,-0.5317,-1.0145,0.2637,-0.582,0.946,-44.94,22.84,6.21,193.96,48.91,-103.54,0,1015.67,44.084,30.453497,-84.31869,57.44,NaN,,0,58.7871,,0 / 19,47404,2018-04-20 21:52:09:039,,,
6.9467,-10.9987,-0.9749,5.7698,-7.6374,-2.1485,-1.4644,3.0079,-0.7651,-0.168,-1.9612,0.4546,0.946,-44.38,23.75,7.98,202.24,51.13,-110.42,0,1015.45,44.084,30.453497,-84.31869,57.44,NaN,,0,58.7871,,0 / 19,47504,2018-04-20 21:52:09:139,,,
4.496,-6.6656,-0.0861,5.811,-7.4956,-2.5069,0.2792,0.5211,-0.2766,-0.949,0.1595,0.0499,0.946,-44.44,24.54,10.39,204.9,49.82,-113.34,0,1015.45,52.031,30.453497,-84.31869,57.44,NaN,,0,58.7871,,0 / 19,47604,2018-04-20 21:52:09:239,,,
3.6294,-7.5854,-2.0448,5.5208,-7.6378,-2.7242,1.5673,-1.1202,-0.3343,-0.7276,1.035,0.8233,0.946,-44,24.42,9.99,209.71,49.5,-115.84,0,1015.28,52.031,30.453497,-84.31869,57.44,NaN,,0,58.7871,,0 / 19,47704,2018-04-20 21:52:09:339,,,
5.2135,-7.8022,-1.8109,5.2565,-7.8759,-2.5643,-0.4529,-0.8226,-0.3741,-0.9916,1.5294,1.1414,0.946,-42.33,31.03,3.9,228.24,53.4,-116,0,1015.29,52.031,30.453497,-84.31869,57.44,NaN,,0,58.7871,,0 / 19,47804,2018-04-20 21:52:09:439,,,
5.1072,-7.6107,-1.854,4.7531,-8.1906,-2.5608,0.518,0.6508,-0.5287,-1.2443,2.0602,1.0433,0.946,-39.32,35.55,-0.99,246.42,56.61,-118.31,0,1015.29,37.553,30.453497,-84.31869,57.44,NaN,,0,58.7871,,0 / 19,47903,2018-04-20 21:52:09:538,,,
3.8836,-8.6245,-1.3419,4.5981,-8.3198,-2.4237,0.4887,-0.2739,0.0941,-1.5763,2.983,0.8564,0.946,-36.87,37.41,-3.61,252.76,58.05,-118.13,0,1015.25,37.553,30.453497,-84.31869,57.44,NaN,,0,58.7871,,0 / 19,48003,2018-04-20 21:52:09:638,,,
4.1057,-8.3825,-2.2547,4.7668,-8.2242,-2.4243,0.2088,-2.0203,0.3261,-1.6716,2.9209,0.5536,0.946,-31.07,42.5,-8.08,278.9,56.97,-116.96,0,1015.25,37.553,30.453497,-84.31869,57.44,NaN,,0,58.7871,,0 / 19,48104,2018-04-20 21:52:09:739,,,
4.2967,-6.9907,-4.2265,5.1205,-8.0977,-2.108,-3.2249,5.7869,1.211,-0.7767,1.5824,0.1693,0.946,-26.26,45.53,-11.08,295.51,55.63,-112.38,0,1015.29,37.553,30.453497,-84.31869,57.44,NaN,,0,58.7871,,0 / 19,48204,2018-04-20 21:52:09:839,,,
6.9802,-10.54,-1.5734,5.181,-8.0477,-2.1513,-0.4989,-0.4764,-3.8139,-0.9809,2.0834,0.3835,0.946,-25.25,46.56,-11.15,299.99,55.12,-112.55,0,1015.32,45.253,30.453497,-84.31869,57.44,NaN,,0,58.7871,,0 / 19,48304,2018-04-20 21:52:09:939,,,
7.6988,-9.1807,1.5932,5.5872,-7.8525,-1.8323,-2.3269,0.7581,-3.2638,-1.7865,2.8468,0.0971,0.946,-20.5,49.21,-9.36,312.46,55.17,-110.18,0,1015.44,45.253,30.453497,-84.31869,57.44,NaN,,0,58.7871,,19-Jul,48403,2018-04-20 21:52:10:038,,,
7.9578,-6.5705,-0.5634,6.1452,-7.5203,-1.3852,-2.249,-2.3261,0.334,-1.4197,2.4515,0.1434,0.946,-15.94,52.1,-5.13,337.49,50.86,-105.41,0,1015.44,45.253,30.453497,-84.31869,57.44,NaN,,0,58.7871,,19-Jul,48504,2018-04-20 21:52:10:139,,,
7.324,-6.7535,-2.3086,6.1061,-7.5867,-1.1804,-0.1735,-0.3058,1.2179,-0.594,1.3055,0.3134,0.946,-13.12,53.56,-2.85,347.69,50.66,-100.94,0,1015.58,45.939,30.453497,-84.31869,57.44,NaN,,0,58.7871,,19-Jul,48604,2018-04-20 21:52:10:239,,,
6.3535,-6.6524,-2.4406,5.9236,-7.7813,-0.7736,-2.1812,-1.3129,0.8133,-0.5095,1.1661,0.4139,0.946,-12.04,53.86,-2.36,351.19,51.38,-98.87,0,1015.58,45.939,30.453497,-84.31869,57.44,NaN,,0,58.7871,,19-Jul,48703,2018-04-20 21:52:10:338,,,
8.2133,-6.3466,-1.8372,5.8276,-7.8607,-0.6961,-0.4035,-0.7837,0.9792,-0.2718,0.5837,0.2934,0.946,-10.27,54.78,-1.54,352.81,53.25,-96.81,0,1015.64,45.939,30.453497,-84.31869,57.44,NaN,,0,58.7871,,19-Jul,48803,2018-04-20 21:52:10:438,,,
6.5098,-7.7251,-1.8205,5.6515,-8.0134,-0.2876,-2.6122,1.1789,0.7476,-0.2272,0.9749,0.3468,0.946,-8.75,54.86,-1.36,356.59,54.77,-92.91,0,1015.59,44.419,30.453497,-84.31869,57.44,NaN,,0,58.7871,,19-Jul,48904,2018-04-20 21:52:10:539,,,
9.0191,-8.9652,-0.278,5.6984,-7.8933,-1.208,2.2804,-1.2752,-2.6172,-0.7199,-0.9728,-0.0143,0.946,-8.54,55.61,-0.98,356.17,53.95,-94.63,0,1015.27,44.419,30.453497,-84.31869,57.44,NaN,,0,58.7871,,19-Jul,49004,2018-04-20 21:52:10:639,,,
3.3047,-9.7887,-1.2087,5.6802,-7.6693,-2.2702,0.8811,3.3209,-1.3774,-1.6112,-0.7824,-0.1395,0.946,-9,55.09,5.07,6.97,53.57,-101.97,0,1015.27,44.419,30.453497,-84.31869,57.44,NaN,,0,58.7871,,19-Jul,49104,2018-04-20 21:52:10:739,,,
6.2938,-8.4643,-1.9632,5.3604,-7.2795,-3.8094,-0.9556,-1.2409,-0.1709,-0.7689,-0.8745,0.1175,0.946,-9.6,55.1,13.48,14.48,48.94,-119.51,0,1015.11,47.802,30.453497,-84.31869,57.44,NaN,,0,58.7871,,19-Jul,49204,2018-04-20 21:52:10:839,,,
3.7667,-5.3208,-3.6064,5.1108,-7.2854,-4.1279,2.3766,-2.2566,-1.027,0.0261,-1.0696,-0.0233,0.946,-8.26,54.56,14.41,12.86,47.96,-128.93,0,1015.11,47.802,30.453497,-84.31869,57.44,NaN,,0,58.7871,,19-Jul,49304,2018-04-20 21:52:10:939,,,
2.0131,-4.5406,-3.2058,5.2726,-7.5664,-3.3446,-2.0622,2.6483,1.2834,0.6847,0.888,-0.0585,0.946,-8.28,54.27,13.44,12.24,49.18,-128.05,0,1015.05,47.802,30.453497,-84.31869,57.44,NaN,,0,58.7871,,0 / 19,49404,2018-04-20 21:52:11:039,,,
7.6845,-11.0589,-6.3675,5.3014,-7.5459,-3.3453,-1.363,-1.6287,4.0352,-0.6407,-0.1794,-0.4236,0.946,-8.82,55.03,12.42,12.37,50.28,-122.25,0,1015.22,47.802,30.453497,-84.31869,57.44,NaN,,0,58.7871,,0 / 19,49504,2018-04-20 21:52:11:139,,,
7.9268,-10.2318,-6.3903,5.1249,-7.5282,-3.6466,0.8452,5.1515,-1.1673,0.7202,-0.872,0.2345,0.946,-9.25,55.41,11.96,10.63,50.12,-125.43,0,1015.22,48.277,30.453497,-84.31869,57.44,NaN,,0,58.7871,,0 / 19,49604,2018-04-20 21:52:11:239,,,
4.2167,-12.718,-2.3614,5.2603,-7.7137,-3.0108,-2.0826,2.3851,-2.6897,0.6312,0.5871,0.1832,0.946,-9.09,55.11,11.2,9.12,49.89,-124.3,0,1015.29,48.277,30.453497,-84.31869,57.44,NaN,,0,58.7871,,0 / 19,49704,2018-04-20 21:52:11:339,,,
7.8981,-8.7449,-0.6906,5.6521,-7.5898,-2.5855,0.6553,-1.7521,-0.9622,0.1664,0.9753,-0.4136,0.946,-11.36,55.51,8.92,8.26,50.69,-114.58,0,1015.42,48.277,30.453497,-84.31869,57.44,NaN,,0,58.7871,,0 / 19,49804,2018-04-20 21:52:11:439,,,
4.7539,-6.6788,-0.6642,5.9666,-7.6294,-1.5583,-1.1405,-0.5466,0.3353,0.245,0.8921,-0.0213,0.946,-11.43,54.89,5.69,4.89,50.9,-108.74,0,1015.42,50.693,30.453497,-84.31869,57.44,NaN,,0,58.7871,,0 / 19,49904,2018-04-20 21:52:11:539,,,
5.6838,-6.4513,-2.269,5.867,-7.765,-1.2326,-1.3435,-1.9353,1.3885,0.3038,0.5179,0.269,0.946,-11.25,55.57,4.38,3.77,52.33,-101.87,0,1015.54,50.693,30.453497,-84.31869,57.44,NaN,,0,58.7871,,0 / 19,50003,2018-04-20 21:52:11:638,,,
6.6268,-6.4007,-1.6645,5.5847,-8.0386,-0.6549,-1.0436,-0.2114,1.2569,0.4006,0.2858,0.1826,0.946,-9.69,56.47,3.61,5.38,54.35,-99.65,0,1015.48,50.693,30.453497,-84.31869,57.44,NaN,,0,58.7871,,0 / 19,50104,2018-04-20 21:52:11:739,,,
8.9713,-10.8289,-1.6633,5.7819,-7.9009,-0.6167,-3.6762,2.3377,1.1695,-0.3257,0.0115,-0.2409,0.946,-9.65,56.14,1.36,0.67,54.78,-94.11,0,1015.48,49.519,30.453497,-84.31869,57.44,NaN,,0,58.7871,,0 / 19,50204,2018-04-20 21:52:11:839,,,
9.5777,-8.9303,0.4021,5.8388,-7.7433,-1.4783,3.0552,4.0504,0.0616,-0.5912,-1.4658,-0.3218,0.946,-11.56,56.46,4.04,2.19,52.12,-104.21,0,1015.26,49.519,30.453497,-84.31869,57.44,NaN,,0,58.7871,,0 / 19,50303,2018-04-20 21:52:11:938,,,
6.6996,-7.9864,-1.6441,5.6845,-7.2388,-3.3944,-0.02,0.9838,-1.1602,-1.1497,-0.948,-0.1917,0.946,-11.48,54.7,12.57,12.34,47.55,-120.84,0,1015.11,49.519,30.453497,-84.31869,57.44,NaN,,0,58.7871,,0 / 19,50403,2018-04-20 21:52:12:038,,,
4.7133,-7.4482,-2.0471,5.3768,-7.1572,-4.0126,1.6985,-1.7911,-1.3851,-0.4705,-1.2408,0.025,0.946,-10.69,54.47,14.67,12.8,46.85,-126.73,0,1015.11,47.384,30.453497,-84.31869,57.44,NaN,,0,58.7871,,0 / 19,50504,2018-04-20 21:52:12:139,,,
2.9143,-4.2348,-2.7644,5.219,-7.2764,-4.0065,2.8203,-3.72,-1.0804,0.5343,0.0031,0.0456,0.946,-10.38,55.23,14.59,11.61,46.4,-129.46,0,1015.06,47.384,30.453497,-84.31869,57.44,NaN,,0,58.7871,,0 / 19,50604,2018-04-20 21:52:12:239,,,
4.1976,-6.7692,-5.3636,5.4122,-7.3559,-3.5826,-2.5244,5.3828,3.0103,-0.4477,0.121,0.0137,0.946,-9.84,55.43,9.5,7.36,49.71,-121.76,0,1015.06,47.384,30.453497,-84.31869,57.44,NaN,,0,58.7871,,0 / 19,50704,2018-04-20 21:52:12:339,,,
7.8695,-12.8697,-6.2848,5.3928,-7.1741,-3.9605,2.5836,3.4975,-1.0822,-0.4967,-0.5073,-0.2814,0.946,-11.22,55.55,12.49,8.87,48.58,-123.5,0,1015.31,47.384,30.453497,-84.31869,57.44,NaN,,0,58.7871,,0 / 19,50804,2018-04-20 21:52:12:439,,,
2.9669,-11.2636,-2.0448,5.3146,-7.4411,-3.5526,0.7228,-0.7886,-2.8734,-0.259,0.7405,-0.2129,0.946,-8.62,55.82,9.89,5.9,50.36,-126.69,0,1015.36,43.108,30.453497,-84.31869,57.44,NaN,,0,58.7871,,0 / 19,50903,2018-04-20 21:52:12:538,,,
3.9206,-4.2517,1.2825,5.4228,-7.5962,-3.0213,-0.8856,0.0842,-1.7469,0.5883,0.7229,0.1415,0.946,-9.67,55.98,9.77,8.83,50.74,-119.12,0,1015.42,43.108,30.453497,-84.31869,57.44,NaN,,0,58.7871,,0 / 19,51003,2018-04-20 21:52:12:638,,,
4.379,-6.7174,-0.6366,5.9054,-7.5804,-1.975,-0.4343,-0.3736,-0.6273,0.3244,1.2282,0.0672,0.946,-10.37,56.03,8.44,9.55,50.6,-108.49,0,1015.42,43.108,30.453497,-84.31869,57.44,NaN,,0,58.7871,,0 / 19,51104,2018-04-20 21:52:12:739,,,
6.283,-7.2387,-1.2327,5.9934,-7.6307,-1.4453,-0.7325,-0.7284,1.0882,0.233,0.644,0.2569,0.946,-9.94,56.74,6.93,9.39,51.06,-103.56,0,1015.54,47.971,30.453497,-84.31869,57.44,NaN,,0,58.7871,,0 / 19,51204,2018-04-20 21:52:12:839,,,
