ACCELEROMETER X (m/s²),ACCELEROMETER Y (m/s²),ACCELEROMETER Z (m/s²),GRAVITY X (m/s²),GRAVITY Y (m/s²),GRAVITY Z (m/s²),LINEAR ACCELERATION X (m/s²),LINEAR ACCELERATION Y (m/s²),LINEAR ACCELERATION Z (m/s²),GYROSCOPE X (rad/s),GYROSCOPE Y (rad/s),GYROSCOPE Z (rad/s),LIGHT (lux),MAGNETIC FIELD X (μT),MAGNETIC FIELD Y (μT),MAGNETIC FIELD Z (μT),ORIENTATION Z (azimuth °),ORIENTATION X (pitch °),ORIENTATION Y (roll °),PROXIMITY (i),ATMOSPHERIC PRESSURE (hPa),SOUND LEVEL (dB),LOCATION Latitude : ,LOCATION Longitude : ,LOCATION Altitude ( m),LOCATION Altitude-google ( m),LOCATION Altitude-atmospheric pressure ( m),LOCATION Speed ( Kmh),LOCATION Accuracy ( m),LOCATION ORIENTATION (°),Satellites in range,Time since start in ms ,YYYY-MO-DD HH-MI-SS_SSS,,,LABEL_DATA
-0.3123,4.3772,8.7047,-0.4776,4.4475,8.7309,-0.097,0.053,-0.1413,-0.0272,-7.00E-04,0.0106,62.33,-20.26,5.34,-40.21,45.11,-26.96,3.13,2,1015.02,37.226,30.453508,-84.31867,70.19,NaN,,0,82.99355,,0 / 20,7,2018-04-20 21:36:46:159,,,
-0.4341,4.3555,8.9889,-0.4838,4.4155,8.7468,-0.1437,0.0762,0.0358,-0.0354,0.0123,-0.0179,66.556,-20.35,6.2,-39.27,44.66,-26.75,3.17,2,1015.02,37.226,30.453508,-84.31867,70.19,NaN,,0,82.99355,,0 / 20,106,2018-04-20 21:36:46:258,,,
-0.3828,4.3543,8.8558,-0.438,4.3906,8.7617,-0.1818,0.0272,0.0564,-0.0551,-0.0415,-0.0058,66.556,-20.09,5.41,-38.93,45.6,-26.82,3,2,1015.02,37.226,30.453508,-84.31867,70.19,NaN,,0,82.99355,,0 / 20,207,2018-04-20 21:36:46:359,,,
-0.3577,4.2977,8.8222,-0.4207,4.3337,8.7908,-0.0647,-0.0791,-0.1434,-0.1039,-0.046,-0.0319,66.556,-20.14,5.52,-39.18,44.57,-26.22,2.74,2,1015.02,25.134,30.453508,-84.31867,70.19,NaN,,0,82.99355,,0 / 20,307,2018-04-20 21:36:46:459,,,
-0.3923,4.2761,9.0285,-0.3536,4.3213,8.7999,-0.094,-8.00E-04,-0.0579,0.0189,-0.0778,8.00E-04,66.556,-21.47,6.81,-39.17,44.34,-26.14,2.3,2,1015.02,25.134,30.453508,-84.31867,70.19,NaN,,0,82.99355,,0 / 20,407,2018-04-20 21:36:46:559,,,
-0.2801,4.3278,9.0537,-0.3009,4.3395,8.7928,-0.1198,0.0314,0.1133,0.0302,-0.088,0.0125,66.556,-21.09,6.53,-38.51,43.89,-26.25,1.96,2,1015.02,25.134,30.453508,-84.31867,70.19,NaN,,0,82.99355,,0 / 20,506,2018-04-20 21:36:46:658,,,
-0.1464,4.3338,8.8462,-0.2566,4.3525,8.7878,-0.1349,0.0253,-0.0067,-0.0104,-0.0304,-0.0125,66.556,-21.93,6.01,-38.64,45.99,-26.39,1.76,2,1015.02,24.976,30.453508,-84.31867,70.19,NaN,,0,82.99355,,0 / 20,607,2018-04-20 21:36:46:759,,,
-0.1178,4.3038,9.0705,-0.274,4.3323,8.7973,-0.1357,0.012,-0.0545,-0.0286,0.0088,-0.0193,66.556,-21.9,6.73,-39.08,44.89,-26.31,1.73,2,1015.02,24.976,30.453508,-84.31867,70.19,NaN,,0,82.99355,,0 / 20,707,2018-04-20 21:36:46:859,,,
-0.2228,4.2616,8.8834,-0.2675,4.3309,8.7982,-0.0925,0.052,-0.0712,-0.004,-0.0035,0.0083,66.556,-21.62,6.55,-38.32,45.49,-26.2,1.74,2,1015.02,24.976,30.453508,-84.31867,70.19,NaN,,0,82.99355,,0 / 20,807,2018-04-20 21:36:46:959,,,
-0.2108,4.2676,8.9469,-0.2574,4.334,8.797,-0.1431,0.0312,-0.0319,-0.0047,-7.00E-04,-0.0029,66.556,-20.95,6.62,-38.2,44.12,-26.24,1.68,2,1015.02,25.358,30.453508,-84.31867,70.19,NaN,,0,82.99355,,0 / 20,907,2018-04-20 21:36:47:059,,,
-0.218,4.2195,8.8798,-0.2501,4.3356,8.7964,-0.1405,-0.033,-0.0537,0.0029,-0.006,0.0098,66.556,-21.66,6.98,-39.28,44.84,-26.23,1.63,2,1015.02,25.358,30.453508,-84.31867,70.19,NaN,,0,82.99355,,0 / 20,1007,2018-04-20 21:36:47:159,,,
-0.1906,4.3387,9.0753,-0.2481,4.3386,8.795,-0.1701,-0.0112,-0.0686,0.0151,0.0058,0.0156,66.556,-20.74,6.16,-38.97,44.65,-26.25,1.62,2,1015.01,25.358,30.453508,-84.31867,70.19,NaN,,0,82.99355,,0 / 20,1107,2018-04-20 21:36:47:259,,,
-0.1357,4.317,8.9769,-0.2377,4.347,8.7911,-0.1845,0.0803,0.1164,-0.0168,0.0129,0.0135,66.556,-21.49,6.1,-39.35,44.45,-26.39,1.53,2,1015.01,25.358,30.453508,-84.31867,70.19,NaN,,0,82.99355,,0 / 20,1207,2018-04-20 21:36:47:359,,,
-0.113,4.2869,8.9529,-0.2471,4.3144,8.8069,-0.1135,0.0831,-0.0522,-0.0604,0.024,0.0065,66.556,-20.97,7.66,-39.66,41.86,-26.3,1.55,2,1015.02,24.406,30.453508,-84.31867,70.19,NaN,,0,82.99355,,0 / 20,1307,2018-04-20 21:36:47:459,,,
-0.1165,4.2532,9.0585,-0.2506,4.2966,8.8155,-0.1206,-0.0248,0.0277,-0.0084,0.0123,-0.013,66.556,-21.04,6.73,-38.71,43.65,-26,1.57,2,1015.01,24.406,30.453508,-84.31867,70.19,NaN,,0,82.99355,,0 / 20,1407,2018-04-20 21:36:47:559,,,
-0.1798,4.2568,8.8462,-0.2378,4.3029,8.8127,-0.1576,0.0381,-0.0864,0.0129,-0.0096,0.0224,66.556,-20.55,7.32,-38.38,44.12,-26.02,1.55,2,1015.01,24.406,30.453508,-84.31867,70.19,NaN,,0,82.99355,,0 / 20,1506,2018-04-20 21:36:47:658,,,
-0.1321,4.2315,9.0129,-0.2324,4.3132,8.8078,-0.1345,0.0384,0.0414,0.0111,0.013,0.002,66.556,-21.24,6.91,-39.12,43.5,-26.06,1.47,2,1015.02,24.761,30.453508,-84.31867,70.19,NaN,,0,82.99355,,0 / 20,1607,2018-04-20 21:36:47:759,,,
-0.1476,4.3375,8.8414,-0.2658,4.2729,8.8265,0.2448,0.0055,-0.0997,-0.1268,0.0375,0.0217,66.556,-21.13,7.65,-41.35,41.89,-25.82,1.73,2,1015.02,24.761,30.453508,-84.31867,70.19,NaN,,0,82.99355,,0 / 20,1707,2018-04-20 21:36:47:859,,,
-0.2395,4.2074,9.0069,-0.2795,4.2323,8.8457,-0.1768,0.0116,0.012,0.0397,0.0153,0.0147,66.556,-21.63,8.08,-38.02,44.86,-25.56,1.81,2,1015.02,24.761,30.453508,-84.31867,70.19,NaN,,0,82.99355,,0 / 20,1807,2018-04-20 21:36:47:959,,,
-0.1762,4.2412,9.0057,-0.2989,4.2092,8.856,-0.1102,-0.1064,-0.1043,-0.024,0.016,-0.0092,66.556,-21.11,7.19,-38.39,44.81,-25.5,1.87,2,1015.02,26.436,30.453508,-84.31867,70.19,NaN,,0,82.99355,,20-Jul,1907,2018-04-20 21:36:48:059,,,
-0.2455,4.2845,9.0729,-0.3028,4.2058,8.8575,-0.1438,-0.0111,-0.2324,-0.0103,0.0118,0.0047,66.556,-20.73,7.44,-39.4,44.48,-25.39,1.96,2,1015.03,26.436,30.453508,-84.31867,70.19,NaN,,0,82.99355,,20-Jul,2007,2018-04-20 21:36:48:159,,,
-0.2049,4.1761,8.8234,-0.3339,4.2281,8.8458,-0.2574,0.0903,0.0901,0.0213,-0.0017,0.0088,66.556,-20.76,6.82,-38.75,44.69,-25.45,2.19,2,1015.03,26.436,30.453508,-84.31867,70.19,NaN,,0,82.99355,,20-Jul,2107,2018-04-20 21:36:48:259,,,
-0.1822,4.1521,8.8342,-0.3369,4.24,8.84,-0.0656,-0.0546,0.0724,0.0246,0.006,-0.0144,66.556,-21.1,7.2,-39.06,44.57,-25.61,2.18,2,1015.03,25.823,30.453508,-84.31867,70.19,NaN,,0,82.99355,,20-Jul,2206,2018-04-20 21:36:48:358,,,
-0.2383,4.2484,8.9421,-0.3052,4.1943,8.8629,0.012,-0.175,-0.167,-0.0535,-0.0314,0.0079,66.556,-20.91,7.04,-39.16,44.58,-25.48,2.11,2,1015.03,25.823,30.453508,-84.31867,70.19,NaN,,0,82.99355,,20-Jul,2306,2018-04-20 21:36:48:458,,,
-0.3565,4.3471,9.1389,-0.1902,4.1521,8.886,0.1506,-0.2247,0.1751,-0.1184,-0.0519,0.1416,66.556,-21.5,7.79,-39.61,42.47,-25.51,1.63,2,1015.04,25.823,30.453508,-84.31867,70.19,NaN,,0,82.99355,,20-Jul,2407,2018-04-20 21:36:48:559,,,
-0.5093,4.0401,8.7694,-0.159,4.0865,8.9169,-0.258,0.0522,-0.3466,-0.1355,0.0131,0.16,66.556,-21.23,8.08,-39.19,42.88,-24.62,1.02,2,1015.04,25.823,30.453508,-84.31867,70.19,NaN,,0,82.99355,,20-Jul,2507,2018-04-20 21:36:48:659,,,
-0.1667,4.0762,9.2216,-0.1454,4.2229,8.8534,-0.0498,-0.1371,0.1994,0.1195,-0.0291,0.0464,66.556,-21.22,7.88,-39.71,42.14,-25.15,1.12,2,1015.04,25.483,30.453508,-84.31867,70.19,NaN,,0,82.99355,,20-Jul,2607,2018-04-20 21:36:48:759,,,
-0.1535,4.3278,8.767,-0.1436,4.1208,8.9014,0.032,0.0153,-0.3103,-0.1765,0.0199,0.0589,66.556,-20.74,7.7,-38.94,42.62,-24.84,0.92,2,1015.04,25.483,30.453508,-84.31867,70.19,NaN,,0,82.99355,,20-Jul,2707,2018-04-20 21:36:48:859,,,
-0.1762,4.1015,9.2444,0.0159,4.4197,8.758,-0.1184,-0.1119,0.704,0.4193,-0.2422,0.0952,66.556,-21.45,7,-37.95,41.83,-26.78,-0.1,2,1015.04,25.483,30.453508,-84.31867,70.19,NaN,,0,82.99355,,20-Jul,2807,2018-04-20 21:36:48:959,,,
0.195,4.6252,8.2465,0.1009,4.2731,8.8299,0.0165,0.1416,-0.3198,-0.1537,0.0406,0.1117,66.556,-22.57,8.04,-38.45,43.39,-25.82,-0.65,2,1015.04,27.907,30.453508,-84.31867,70.19,NaN,,0,82.99355,,0 / 20,2906,2018-04-20 21:36:49:058,,,
-0.033,4.0557,8.8834,0.1012,4.3284,8.8029,-0.1584,0.2005,0.6911,0.2235,0.0612,0.118,62.33,-21.59,8.71,-38.62,40.79,-25.4,-0.67,2,1015.04,27.907,30.453508,-84.31867,70.19,NaN,,0,82.99355,,0 / 20,3007,2018-04-20 21:36:49:159,,,
0.2034,4.0858,8.2297,0.1448,4.1257,8.8991,-0.1258,0.1962,0.1014,-0.2284,0.0483,0.2333,62.33,-21.26,8.79,-38.77,39.3,-25.67,-0.66,2,1015.04,27.907,30.453508,-84.31867,70.19,NaN,,0,82.99355,,0 / 20,3107,2018-04-20 21:36:49:259,,,
0.5137,3.9257,8.9781,0.1792,4.0319,8.9413,-0.3067,0.0948,-0.0189,-0.1593,0.0452,0.2457,62.33,-21.21,10.17,-38.84,38.61,-24.27,-1.15,2,1015.04,25.764,30.453508,-84.31867,70.19,NaN,,0,82.99355,,0 / 20,3207,2018-04-20 21:36:49:359,,,
0.4338,3.8992,8.9709,0.1064,3.8683,9.0145,-0.2193,-0.0057,-0.0699,-0.1716,0.1737,0.1155,62.33,-21.33,11.97,-38.8,37.77,-23.22,-0.68,2,1015.04,25.764,30.453508,-84.31867,70.19,NaN,,0,82.99355,,0 / 20,3307,2018-04-20 21:36:49:459,,,
0.2965,3.821,9.1389,0.1077,3.828,9.0317,-0.4308,0.0744,-0.9219,0.2975,-0.1029,0.046,62.33,-20.22,12.18,-39.74,36.12,-22.97,-0.68,2,1015.03,25.764,30.453508,-84.31867,70.19,NaN,,0,82.99355,,0 / 20,3407,2018-04-20 21:36:49:559,,,
0.8014,3.9715,8.9194,0.1515,4.0506,8.9334,-0.1468,-0.1155,-0.4016,0.1016,-0.0398,-0.1504,62.33,-21.28,9.47,-39.41,39.76,-24.39,-0.97,2,1015.03,54.968,30.453508,-84.31867,70.19,NaN,,0,82.99355,,0 / 20,3507,2018-04-20 21:36:49:659,,,
-0.0604,4.187,9.362,-0.467,4.1981,8.854,0.1373,0.178,-0.3033,0.1051,0.403,-0.114,62.33,-17.21,9.43,-39.85,35.93,-25.05,1.5,2,1015.03,54.968,30.453508,-84.31867,70.19,NaN,,0,82.99355,,0 / 20,3607,2018-04-20 21:36:49:759,,,
-0.6454,3.9955,9.0669,-0.4238,4.1638,8.8724,-0.2437,0.0128,-0.1325,-0.0706,-0.0374,0.0307,62.33,-18.22,9.84,-40.63,37.59,-25.34,3.02,2,1015.03,54.968,30.453508,-84.31867,70.19,NaN,,0,82.99355,,0 / 20,3707,2018-04-20 21:36:49:859,,,
-0.1822,4.1509,9.1053,-0.2212,4.3383,8.7958,0.2736,-0.2023,0.6575,0.1877,-0.1443,0.0944,62.33,-18.9,8.75,-40.36,39.22,-25.61,2.14,2,1015.03,54.968,30.453508,-84.31867,70.19,NaN,,0,82.99355,,0 / 20,3807,2018-04-20 21:36:49:959,,,
-0.2288,4.2905,9.0117,-0.2526,4.2756,8.8256,0.1367,0.0025,0.0147,-0.1091,0.0386,0.0241,62.33,-19.31,9.59,-40.19,37.56,-25.84,1.64,2,1015.03,51.655,30.453508,-84.31867,70.19,NaN,,0,82.99355,,0 / 20,3907,2018-04-20 21:36:50:059,,,
-0.384,3.892,9.4315,-0.5389,4.3279,8.7872,-0.4427,-0.0771,0.8182,-0.0089,0.4635,0.319,62.33,-17.36,9.91,-40.81,36.25,-26.18,3.51,2,1015.03,51.655,30.453508,-84.31867,70.19,NaN,,0,82.99355,,0 / 20,4007,2018-04-20 21:36:50:159,,,
-0.2144,4.5253,8.8534,-0.4949,4.0309,8.9299,-0.2648,-0.2787,0.0773,-0.4069,0.0496,-0.1812,62.33,-17.26,9.91,-41.17,35.51,-25.9,2.72,2,1015.03,51.655,30.453508,-84.31867,70.19,NaN,,0,82.99355,,0 / 20,4106,2018-04-20 21:36:50:258,,,
-0.2729,4.3302,9.2948,-0.4613,3.7414,9.0568,-0.0604,0.0475,-0.7077,-0.5374,-0.1266,-0.1895,62.33,-18.09,11.68,-40.94,37.27,-22.42,2.92,2,1015.02,27.381,30.453508,-84.31867,70.19,NaN,,0,82.99355,,0 / 20,4207,2018-04-20 21:36:50:359,,,
-0.3839,3.5152,9.7398,-0.4394,3.8843,8.9975,-0.2774,0.0142,-0.3372,0.1875,0.0433,0.0955,62.33,-18.68,12.12,-40.58,38.3,-22.66,2.73,2,1015.02,27.381,30.453508,-84.31867,70.19,NaN,,0,82.99355,,0 / 20,4306,2018-04-20 21:36:50:458,,,Drop
-0.1404,4.1027,9.0525,-0.5588,3.8842,8.9909,-0.2689,0.0801,-0.1415,0.0155,0.2337,0.0437,62.33,-17.8,11.46,-40.48,37.93,-23.33,2.8,2,1015.02,27.381,30.453508,-84.31867,70.19,NaN,,0,82.99355,,0 / 20,4407,2018-04-20 21:36:50:559,,,Drop
-0.4377,3.7776,9.1484,-0.5141,3.8909,8.9907,-0.2895,0.1363,-0.0026,0.0598,-0.0576,0.0157,71.838,-16.72,12.03,-40.91,36.11,-23.13,3.51,2,1015.02,53.368,30.453508,-84.31867,70.19,NaN,,0,82.99355,,0 / 20,4507,2018-04-20 21:36:50:659,,,Drop
-0.3792,3.7198,9.1364,-0.5076,3.9538,8.9636,-0.1892,0.0162,0.3542,-0.0295,-0.045,-0.0291,71.838,-17.85,11.51,-40.73,36.91,-23.94,3.38,2,1015.01,53.368,30.453508,-84.31867,70.19,NaN,,0,82.99355,,0 / 20,4607,2018-04-20 21:36:50:759,,,Drop
-0.4627,3.9149,8.8738,-0.5131,3.8638,9.0025,-0.1248,-0.0094,-0.0851,-0.1582,-0.0213,-0.0613,71.838,-17.6,11.67,-41.54,36.88,-23.19,3.26,2,1015.01,53.368,30.453508,-84.31867,70.19,NaN,,0,82.99355,,0 / 20,4707,2018-04-20 21:36:50:859,,,Drop
-0.4818,3.7824,9.1844,-0.5073,3.7659,9.0442,-0.1648,-0.024,-0.0765,-0.0961,-0.0203,-0.0181,71.838,-17.49,11.84,-39.85,36.27,-22.94,3.26,2,1015.01,51.201,30.453508,-84.31867,70.19,NaN,,0,82.99355,,0 / 20,4806,2018-04-20 21:36:50:958,,,Drop
-0.4007,3.7523,9.236,-0.52,3.7254,9.0602,-0.0627,0.0151,0.1437,-0.0753,0.018,-0.0105,71.838,-17.11,12.19,-40.45,36.65,-22.32,3.28,2,1015.01,51.201,30.453508,-84.31867,70.19,NaN,,0,82.99355,,0 / 20,4907,2018-04-20 21:36:51:059,,,Drop
-0.6072,3.5091,9.3559,-0.5573,3.627,9.0978,-0.1491,-0.0083,-0.147,-0.074,0.0219,0.0046,71.838,-16.84,12.54,-40.44,36.27,-21.7,3.51,2,1015.02,51.201,30.453508,-84.31867,70.19,NaN,,0,82.99355,,0 / 20,5007,2018-04-20 21:36:51:159,,,Drop
-0.4711,3.6416,9.248,-0.5465,3.6388,9.0938,-0.1263,-0.0564,0.0452,0.023,-0.017,3.00E-04,71.838,-17.68,12.01,-40.36,38.67,-21.7,3.51,2,1015.02,51.201,30.453508,-84.31867,70.19,NaN,,0,82.99355,,0 / 20,5106,2018-04-20 21:36:51:258,,,Drop
-0.4377,3.5705,9.4423,-0.516,3.6073,9.1081,-0.1507,0.0298,-0.1937,-0.0161,-0.0205,0.0069,76.064,-17.35,12.2,-40.5,36.8,-21.61,3.33,2,1015.02,27.467,30.453508,-84.31867,70.19,NaN,,0,82.99355,,0 / 20,5207,2018-04-20 21:36:51:359,,,Drop
-0.4066,3.5802,9.1161,-0.4551,3.6557,9.092,-0.1466,0.0353,0.3807,0.0404,-0.0681,0.0224,76.064,-17.25,13.42,-40.01,35.92,-21.74,3.21,2,1015.02,27.467,30.453508,-84.31867,70.19,NaN,,0,82.99355,,0 / 20,5307,2018-04-20 21:36:51:459,,,Drop
-0.267,3.7307,9.4255,-0.4067,3.634,9.103,-0.1226,-0.0436,-0.353,-0.0348,-0.0984,-0.0058,76.064,-17.83,12.38,-40.71,37.28,-21.74,2.56,2,1015.02,27.467,30.453508,-84.31867,70.19,NaN,,0,82.99355,,0 / 20,5407,2018-04-20 21:36:51:559,,,Drop
-0.3839,3.6319,9.4615,-0.3991,3.6219,9.1081,0.0224,-0.0866,-0.1819,-0.0052,-0.0165,0.0232,76.064,-17.89,12.43,-39.9,37.72,-21.68,2.62,2,1015.02,52.137,30.453508,-84.31867,70.19,NaN,,0,82.99355,,0 / 20,5507,2018-04-20 21:36:51:659,,,Drop
-0.52,3.6645,9.3655,-0.3923,3.6557,9.095,0.02,-0.0664,0.2663,0.0521,0.0068,0.0478,76.064,-18.02,12.98,-38.92,36.79,-21.88,2.47,2,1015.01,52.137,30.453508,-84.31867,70.19,NaN,,0,82.99355,,0 / 20,5607,2018-04-20 21:36:51:759,,,Drop
-0.3732,3.7969,8.9961,-0.432,3.7094,9.0714,0.0701,-0.1381,0.5151,0.0182,0.1009,0.0367,76.064,-18.24,12.8,-39.64,36.55,-22.22,2.73,2,1015.01,52.137,30.453508,-84.31867,70.19,NaN,,0,82.99355,,0 / 20,5707,2018-04-20 21:36:51:859,,,Drop
-0.5558,3.8174,8.6687,-0.7158,3.4368,9.1604,0.3143,-1.3485,5.5513,-0.3834,0.4113,0.2922,76.064,-17.78,13.71,-40.94,38.12,-20.51,4.47,2,1015.01,46.979,30.453508,-84.31867,70.19,NaN,,0,82.99355,,0 / 20,5807,2018-04-20 21:36:51:959,,,Drop
0.1843,1.7622,0.9826,-1.8029,2.6195,9.2803,-1.6189,2.7766,9.2107,-1.4551,1.9604,0.291,76.064,-13.67,16.33,-41,30.67,-20.51,4.47,2,1015,46.979,30.453508,-84.31867,70.19,NaN,,0,82.99355,,0 / 20,5907,2018-04-20 21:36:52:059,,,Drop
0.0864,0.0549,0.1934,-3.9788,0.7558,8.935,-3.6507,1.1257,8.9344,-1.6355,1.8561,0.0421,76.064,-4.22,23.98,-40.3,27.97,-9.89,17.62,2,1015,46.979,30.453508,-84.31867,70.19,NaN,,0,82.99355,,0 / 20,6007,2018-04-20 21:36:52:159,,,Drop
0.0625,0.0164,0.311,-4.8869,-0.1518,8.5048,-5.2746,-0.5201,8.0571,-1.6126,1.6665,-0.0687,76.064,4.31,34.23,-35.05,22.64,0.89,29.88,2,1015,44.249,30.453508,-84.31867,70.19,NaN,,0,82.99355,,0 / 20,6107,2018-04-20 21:36:52:259,,,Drop
0.0315,-0.0016,0.3841,-3.0785,-1.7254,9.1533,-0.2241,21.9148,-115.5028,-1.3429,-2.9469,-0.4501,76.064,7.23,37.72,-31.7,19.91,5.93,34.88,2,1015.01,44.249,30.453508,-84.31867,70.19,NaN,,0,82.99355,,0 / 20,6207,2018-04-20 21:36:52:359,,,Drop
0.7477,-3.9771,24.2362,-1.1287,-0.7956,9.7123,-2.7596,1.6837,-2.698,-1.432,0.1834,-0.3253,76.064,-16.23,35.21,-32.74,31.32,4.65,6.63,0,1014.98,44.249,30.453508,-84.31867,70.19,NaN,,0,82.99355,,0 / 20,6307,2018-04-20 21:36:52:459,,,Drop
0.6188,-0.0426,2.1869,-0.8678,-1.9961,9.5655,-0.901,-0.9648,-0.4068,-0.6785,-0.4935,-0.2098,76.064,-17.37,40.12,-28.71,30.19,11.74,5.18,0,1014.98,44.249,30.453508,-84.31867,70.19,NaN,,0,82.99355,,0 / 20,6407,2018-04-20 21:36:52:559,,,Drop
-0.458,-1.6523,12.8631,-1.1319,-1.3748,9.647,-1.3396,-0.1867,1.3889,-0.2372,-0.0749,-0.0257,76.064,-15.97,37.93,-30.63,30.15,8.06,6.69,0,1015.03,61.168,30.453508,-84.31867,70.19,NaN,,0,82.99355,,0 / 20,6507,2018-04-20 21:36:52:659,,,Drop
0.269,-1.4825,9.4663,-1.1291,-1.3611,9.6493,-1.1734,0.1183,-0.4229,0.027,0.0103,-0.0031,119.377,-15.79,38.28,-31.03,30.15,8.06,6.69,0,1015.05,61.168,30.453508,-84.31867,70.19,NaN,,0,82.99355,,0 / 20,6606,2018-04-20 21:36:52:758,,,Drop
0.0936,-1.3212,9.6186,-1.1016,-1.3613,9.6524,-1.3089,-0.0451,-0.1183,0.0061,-0.0045,-0.0047,119.377,-15.43,37.29,-30.58,29.54,7.99,6.62,0,1015.05,61.168,30.453508,-84.31867,70.19,NaN,,0,82.99355,,0 / 20,6706,2018-04-20 21:36:52:858,,,Drop
0.0351,-1.5078,9.7637,-1.0914,-1.3618,9.6535,-1.2277,0.0204,-0.0911,-7.00E-04,0.0019,-0.0038,119.377,-16.45,37.69,-30.44,29.73,7.98,6.45,0,1015.08,33.709,30.453508,-84.31867,70.19,NaN,,0,82.99355,,0 / 20,6806,2018-04-20 21:36:52:958,,,Drop
0.0852,-1.4163,9.8585,-1.0704,-1.3638,9.6556,-1.1878,0.0634,-0.0878,0.0019,-5.00E-04,-0.0042,119.377,-16.62,37.25,-30.76,31.95,7.99,6.39,0,1015.08,33.709,30.453508,-84.31867,70.19,NaN,,0,82.99355,,0 / 20,6906,2018-04-20 21:36:53:058,,,Drop
0.0816,-1.4404,9.8165,-1.0455,-1.3651,9.6581,-1.2079,0.0253,-0.0866,-8.00E-04,5.00E-04,-0.0043,119.377,-17.21,38.36,-31.51,31.34,7.99,6.24,0,1015.1,33.709,30.453508,-84.31867,70.19,NaN,,0,82.99355,,0 / 20,7007,2018-04-20 21:36:53:159,,,Drop
0.0768,-1.4488,9.8249,-1.0351,-1.3655,9.6592,-1.169,0.0395,-0.0689,6.00E-04,2.00E-04,-0.004,119.377,-15.89,38.6,-31.38,29.06,8,6.12,0,1015.1,24.842,30.453508,-84.31867,70.19,NaN,,0,82.99355,,0 / 20,7107,2018-04-20 21:36:53:259,,,Drop
0.0792,-1.4283,9.8429,-1.0114,-1.3669,9.6615,-1.1523,0.0299,-0.0622,-2.00E-04,6.00E-04,-0.0046,119.377,-16.51,37.15,-31.52,31.95,8.01,5.98,0,1015.11,24.842,30.453508,-84.31867,70.19,NaN,,0,82.99355,,0 / 20,7207,2018-04-20 21:36:53:359,,,Drop
0.0828,-1.4296,9.8369,-1.0013,-1.3676,9.6625,-1.1446,0.045,-0.0636,0,1.00E-04,-0.0045,119.377,-15.8,37.05,-30.7,30.4,8.01,5.92,0,1015.11,24.842,30.453508,-84.31867,70.19,NaN,,0,82.99355,,0 / 20,7307,2018-04-20 21:36:53:459,,,Drop
0.0804,-1.4416,9.8405,-0.9814,-1.3686,9.6644,-1.1331,0.0426,-0.0605,6.00E-04,-5.00E-04,-0.0045,47.54,-15.21,37.89,-30.67,28.34,8.02,5.86,0,1015.12,24.508,30.453508,-84.31867,70.19,NaN,,0,82.99355,,0 / 20,7407,2018-04-20 21:36:53:559,,,
0.0852,-1.4307,9.8501,-0.9589,-1.3698,9.6665,-1.1064,0.037,-0.0599,2.00E-04,4.00E-04,-0.0044,47.54,-15.79,38.23,-31.13,29.54,8.02,5.72,0,1015.12,24.508,30.453508,-84.31867,70.19,NaN,,0,82.99355,,0 / 20,7507,2018-04-20 21:36:53:659,,,
0.0744,-1.438,9.8357,-0.949,-1.3699,9.6674,-1.0824,0.04,-0.0581,7.00E-04,-2.00E-04,-0.0046,47.54,-15.99,37.12,-30.96,30.25,8.03,5.66,0,1015.13,24.508,30.453508,-84.31867,70.19,NaN,,0,82.99355,,0 / 20,7607,2018-04-20 21:36:53:759,,,
0.0757,-1.4356,9.8429,-0.9272,-1.371,9.6694,-1.0686,0.0384,-0.0524,1.00E-04,3.00E-04,-0.0046,47.54,-16.22,37.24,-31.67,30.41,8.03,5.55,0,1015.13,24.508,30.453508,-84.31867,70.19,NaN,,0,82.99355,,0 / 20,7707,2018-04-20 21:36:53:859,,,
0.0924,-1.4344,9.8513,-0.9175,-1.3712,9.6703,-1.053,0.0171,-0.0411,7.00E-04,-6.00E-04,-0.0045,47.54,-15.82,37.72,-30.89,29.36,8.03,5.42,0,1015.13,24.666,30.453508,-84.31867,70.19,NaN,,0,82.99355,,0 / 20,7807,2018-04-20 21:36:53:959,,,
0.0709,-1.432,9.8405,-0.8991,-1.3717,9.6719,-1.0382,0.0383,-0.0623,7.00E-04,2.00E-04,-0.0046,47.54,-15.86,37.58,-31.3,29.29,8.04,5.31,0,1015.13,24.666,30.453508,-84.31867,70.19,NaN,,0,82.99355,,0 / 20,7907,2018-04-20 21:36:54:059,,,
0.084,-1.4428,9.8477,-0.8871,-1.372,9.673,-1.0225,0.0174,-0.0631,4.00E-04,0,-0.0045,47.54,-15.67,37.57,-31.19,29.24,8.04,5.24,0,1015.13,24.666,30.453508,-84.31867,70.19,NaN,,0,82.99355,,0 / 20,8007,2018-04-20 21:36:54:159,,,
0.0876,-1.4356,9.8369,-0.8692,-1.3723,9.6746,-1.022,0.0231,-0.0611,7.00E-04,3.00E-04,-0.0043,47.54,-16.27,38.26,-30.99,29.18,8.04,5.13,0,1015.13,26.388,30.453508,-84.31867,70.19,NaN,,0,82.99355,,0 / 20,8107,2018-04-20 21:36:54:259,,,
0.0947,-1.4476,9.8381,-0.8485,-1.3737,9.6762,-1.0019,0.0378,-0.0597,0,-1.00E-04,-0.0042,47.54,-16.39,37.96,-31.25,29.15,8.04,5.08,0,1015.13,26.388,30.453508,-84.31867,70.19,NaN,,0,82.99355,,0 / 20,8207,2018-04-20 21:36:54:359,,,
0.0852,-1.4368,9.8489,-0.8398,-1.3742,9.6769,-0.9832,0.0308,-0.0571,-2.00E-04,4.00E-04,-0.0044,47.54,-16.01,38.43,-29.6,28.86,8.05,4.96,0,1015.13,26.388,30.453508,-84.31867,70.19,NaN,,0,82.99355,,0 / 20,8307,2018-04-20 21:36:54:459,,,
0.0912,-1.438,9.8477,-0.8223,-1.3749,9.6783,-0.9663,0.0172,-0.048,3.00E-04,-5.00E-04,-0.0045,47.54,-15.74,38.28,-30.72,29.04,8.05,4.91,0,1015.13,27.981,30.453508,-84.31867,70.19,NaN,,0,82.99355,,0 / 20,8406,2018-04-20 21:36:54:558,,,
0.09,-1.4368,9.8441,-0.811,-1.3751,9.6792,-0.9574,0.0229,-0.0562,8.00E-04,1.00E-04,-0.0047,47.54,-16.51,37.35,-31.37,31,8.06,4.79,0,1015.13,27.981,30.453508,-84.31867,70.19,NaN,,0,82.99355,,0 / 20,8506,2018-04-20 21:36:54:658,,,
0.0757,-1.432,9.8429,-0.7942,-1.3761,9.6805,-0.9407,0.034,-0.0429,-2.00E-04,2.00E-04,-0.0045,47.54,-15.54,37.7,-30.32,28.7,8.06,4.69,0,1015.14,27.981,30.453508,-84.31867,70.19,NaN,,0,82.99355,,0 / 20,8606,2018-04-20 21:36:54:758,,,
0.0864,-1.4308,9.8501,-0.7753,-1.3771,9.6819,-0.9185,0.0162,-0.043,-3.00E-04,1.00E-04,-0.0045,47.54,-16.44,38.07,-31.45,28.87,8.06,4.64,0,1015.14,45.805,30.453508,-84.31867,70.19,NaN,,0,82.99355,,0 / 20,8707,2018-04-20 21:36:54:859,,,
0.0852,-1.4259,9.8381,-0.767,-1.3773,9.6825,-0.9151,0.0244,-0.0471,2.00E-04,1.00E-04,-0.0045,47.54,-15.94,37.27,-31.41,29.54,8.07,4.53,0,1015.14,45.805,30.453508,-84.31867,70.19,NaN,,0,82.99355,,0 / 20,8807,2018-04-20 21:36:54:959,,,
0.078,-1.4428,9.8477,-0.751,-1.3779,9.6837,-0.8982,0.0251,-0.0472,0,-1.00E-04,-0.0042,47.54,-15.72,37.67,-31.14,28.77,8.07,4.48,0,1015.14,45.805,30.453508,-84.31867,70.19,NaN,,0,82.99355,,0 / 20,8907,2018-04-20 21:36:55:059,,,
0.0757,-1.4392,9.8381,-0.7406,-1.3783,9.6844,-0.8827,0.0206,-0.0425,2.00E-04,1.00E-04,-0.0045,47.54,-16.51,38.21,-30.48,29.79,8.08,4.37,0,1015.14,45.805,30.453508,-84.31867,70.19,NaN,,0,82.99355,,0 / 20,9007,2018-04-20 21:36:55:159,,,
0.078,-1.4344,9.8345,-0.7258,-1.3789,9.6855,-0.8645,0.0228,-0.036,3.00E-04,0,1.00E-04,47.54,-15.87,37.83,-30.89,28.68,8.08,4.33,0,1015.14,36.956,30.453508,-84.31867,70.19,NaN,,0,82.99355,,0 / 20,9107,2018-04-20 21:36:55:259,,,
0.0744,-1.4392,9.8417,-0.7187,-1.3792,9.6859,-0.8547,0.0186,-0.0506,-5.00E-04,-7.00E-04,-2.00E-04,47.54,-15.63,37.76,-30.88,28.62,8.08,4.24,0,1015.14,36.956,30.453508,-84.31867,70.19,NaN,,0,82.99355,,0 / 20,9207,2018-04-20 21:36:55:359,,,
0.0816,-1.4356,9.8333,-0.7017,-1.3799,9.6871,-0.8364,0.0132,-0.046,1.00E-04,4.00E-04,-2.00E-04,47.54,-16.24,37.6,-31.41,28.56,8.09,4.14,0,1015.14,36.956,30.453508,-84.31867,70.19,NaN,,0,82.99355,,0 / 20,9307,2018-04-20 21:36:55:459,,,
0.0733,-1.4332,9.8417,-0.6872,-1.3803,9.6881,-0.8281,0.0309,-0.0427,4.00E-04,-3.00E-04,-2.00E-04,47.54,-16.08,37.23,-31.21,29.26,8.09,4.1,0,1015.14,36.246,30.453508,-84.31867,70.19,NaN,,0,82.99355,,0 / 20,9407,2018-04-20 21:36:55:559,,,
0.0828,-1.4392,9.8405,-0.6781,-1.3805,9.6887,-0.8227,0.0187,-0.0542,0,5.00E-04,1.00E-04,47.54,-15.57,37.09,-30.44,29,8.09,4,0,1015.14,36.246,30.453508,-84.31867,70.19,NaN,,0,82.99355,,0 / 20,9507,2018-04-20 21:36:55:659,,,
0.0792,-1.4344,9.8381,-0.664,-1.3804,9.6897,-0.8027,0.0273,-0.028,5.00E-04,-8.00E-04,-4.00E-04,47.54,-16.14,37.32,-30.6,29.17,8.09,3.96,0,1015.14,36.246,30.453508,-84.31867,70.19,NaN,,0,82.99355,,0 / 20,9607,2018-04-20 21:36:55:759,,,
0.0888,-1.4392,9.8381,-0.6571,-1.3809,9.6901,-0.8065,0.0303,-0.0415,-4.00E-04,-3.00E-04,1.00E-04,47.54,-15.43,37.6,-31.14,27.05,8.09,3.88,0,1015.13,42.496,30.453508,-84.31867,70.19,NaN,,0,82.99355,,0 / 20,9707,2018-04-20 21:36:55:859,,,
0.0852,-1.4368,9.8489,-0.6415,-1.3815,9.691,-0.7784,0.0106,-0.0376,-2.00E-04,0,3.00E-04,47.54,-15.94,38.28,-30.21,28.16,8.09,3.83,0,1015.14,42.496,30.453508,-84.31867,70.19,NaN,,0,82.99355,,0 / 20,9807,2018-04-20 21:36:55:959,,,
0.0924,-1.4392,9.8357,-0.6284,-1.3821,9.6918,-0.7743,0.0197,-0.0368,-2.00E-04,-1.00E-04,-4.00E-04,47.54,-16.02,37.02,-31.52,29.22,8.1,3.75,0,1015.14,42.496,30.453508,-84.31867,70.19,NaN,,0,82.99355,,20-Oct,9907,2018-04-20 21:36:56:059,,,
0.0888,-1.4332,9.8501,-0.6196,-1.3824,9.6923,-0.7654,0.0216,-0.0312,0,-7.00E-04,-1.00E-04,47.54,-15.58,38.03,-31.69,28.43,8.1,3.66,0,1015.14,24.179,30.453508,-84.31867,70.19,NaN,,0,82.99355,,20-Oct,10007,2018-04-20 21:36:56:159,,,
0.0876,-1.4356,9.8465,-0.6065,-1.3826,9.6931,-0.7453,0.0226,-0.04,-3.00E-04,-2.00E-04,-2.00E-04,47.54,-15.98,38.45,-31.38,28.22,8.1,3.62,0,1015.14,24.179,30.453508,-84.31867,70.19,NaN,,0,82.99355,,20-Oct,10107,2018-04-20 21:36:56:259,,,
0.0816,-1.4344,9.8429,-0.6004,-1.3827,9.6935,-0.7381,0.0189,-0.036,-1.00E-04,4.00E-04,-1.00E-04,47.54,-15.59,37.06,-31.67,29.08,8.1,3.54,0,1015.14,24.179,30.453508,-84.31867,70.19,NaN,,0,82.99355,,20-Oct,10207,2018-04-20 21:36:56:359,,,
0.0828,-1.438,9.8453,-0.5856,-1.3831,9.6943,-0.7266,0.0174,-0.0353,4.00E-04,-5.00E-04,-4.00E-04,47.54,-16.59,37.81,-30.59,29.42,8.11,3.46,0,1015.14,24.179,30.453508,-84.31867,70.19,NaN,,0,82.99355,,20-Oct,10307,2018-04-20 21:36:56:459,,,
0.0733,-1.4344,9.8453,-0.5732,-1.3834,9.695,-0.7133,0.0123,-0.0334,2.00E-04,-2.00E-04,-3.00E-04,47.54,-16.58,38.03,-31.66,29.58,8.11,3.42,0,1015.14,37.505,30.453508,-84.31867,70.19,NaN,,0,82.99355,,20-Oct,10406,2018-04-20 21:36:56:558,,,
0.0685,-1.4259,9.8429,-0.5653,-1.3835,9.6955,-0.6974,0.0205,-0.0352,1.00E-04,-1.00E-04,2.00E-04,47.54,-15.72,37.67,-31.14,28.06,8.11,3.38,0,1015.14,37.505,30.453508,-84.31867,70.19,NaN,,0,82.99355,,20-Oct,10506,2018-04-20 21:36:56:658,,,
0.0888,-1.4307,9.8453,-0.5533,-1.3838,9.6961,-0.6938,0.0168,-0.0348,1.00E-04,-3.00E-04,-4.00E-04,47.54,-15.89,37.38,-32.02,28.92,8.11,3.3,0,1015.15,37.505,30.453508,-84.31867,70.19,NaN,,0,82.99355,,20-Oct,10607,2018-04-20 21:36:56:759,,,
0.0733,-1.4392,9.8477,-0.5475,-1.3841,9.6964,-0.6854,0.0199,-0.0342,-4.00E-04,0,-2.00E-04,47.54,-16.07,38.04,-30.99,27.96,8.11,3.23,0,1015.15,38.83,30.453508,-84.31867,70.19,NaN,,0,82.99355,,20-Oct,10706,2018-04-20 21:36:56:858,,,
0.078,-1.4392,9.8345,-0.5336,-1.3841,9.6972,-0.6643,0.0104,-0.0359,4.00E-04,0,-3.00E-04,47.54,-15.97,38.19,-31.18,27.91,8.11,3.15,0,1015.15,38.83,30.453508,-84.31867,70.19,NaN,,0,82.99355,,20-Oct,10806,2018-04-20 21:36:56:958,,,
0.0709,-1.4428,9.8501,-0.5281,-1.3844,9.6974,-0.6719,0.0196,-0.0321,4.00E-04,1.00E-04,-5.00E-04,47.54,-15.8,37.05,-30.55,28.61,8.11,3.12,0,1015.14,38.83,30.453508,-84.31867,70.19,NaN,,0,82.99355,,0 / 20,10907,2018-04-20 21:36:57:059,,,
0.084,-1.4332,9.8501,-0.5154,-1.3848,9.6981,-0.6538,0.0157,-0.0328,-3.00E-04,6.00E-04,-2.00E-04,47.54,-15.47,37.5,-31.09,26.49,8.12,3.04,0,1015.14,25.246,30.453508,-84.31867,70.19,NaN,,0,82.99355,,0 / 20,11007,2018-04-20 21:36:57:159,,,
0.0757,-1.444,9.8357,-0.5045,-1.3854,9.6986,-0.6371,0.0187,-0.0359,-2.00E-04,2.00E-04,1.00E-04,47.54,-15.7,37,-30.85,28.51,8.12,2.98,0,1015.15,25.246,30.453508,-84.31867,70.19,NaN,,0,82.99355,,0 / 20,11107,2018-04-20 21:36:57:259,,,
0.0852,-1.4392,9.8477,-0.4992,-1.3854,9.6988,-0.6337,0.021,-0.0306,3.00E-04,3.00E-04,3.00E-04,47.54,-15.72,37.67,-31.25,27.8,8.12,2.98,0,1015.14,25.246,30.453508,-84.31867,70.19,NaN,,0,82.99355,,0 / 20,11207,2018-04-20 21:36:57:359,,,
0.0733,-1.4368,9.8549,-0.4873,-1.386,9.6994,-0.6322,0.0087,-0.0387,-5.00E-04,3.00E-04,2.00E-04,47.54,-16.47,37.46,-31.77,28.64,8.12,2.91,0,1015.14,25.715,30.453508,-84.31867,70.19,NaN,,0,82.99355,,0 / 20,11307,2018-04-20 21:36:57:459,,,
0.0804,-1.4368,9.8465,-0.482,-1.3861,9.6996,-0.6264,0.012,-0.0323,1.00E-04,5.00E-04,-1.00E-04,47.54,-15.41,38.37,-31.27,26.35,8.12,2.84,0,1015.15,25.715,30.453508,-84.31867,70.19,NaN,,0,82.99355,,0 / 20,11407,2018-04-20 21:36:57:559,,,
0.0816,-1.4416,9.8417,-0.4701,-1.3865,9.7001,-0.6139,0.0235,-0.0306,-1.00E-04,0,1.00E-04,47.54,-15.98,37.44,-32.17,28.55,8.13,2.77,0,1015.15,25.715,30.453508,-84.31867,70.19,NaN,,0,82.99355,,0 / 20,11507,2018-04-20 21:36:57:659,,,
0.0816,-1.4392,9.8525,-0.4603,-1.3868,9.7006,-0.6051,0.0149,-0.0292,1.00E-04,4.00E-04,3.00E-04,47.54,-15.7,37.05,-31.11,28.36,8.13,2.74,0,1015.15,25.715,30.453508,-84.31867,70.19,NaN,,0,82.99355,,0 / 20,11607,2018-04-20 21:36:57:759,,,
0.0864,-1.4368,9.8441,-0.4551,-1.3869,9.7008,-0.5943,0.0075,-0.0408,2.00E-04,-4.00E-04,2.00E-04,45.427,-15.62,37.51,-31.09,27.6,8.13,2.69,0,1015.15,24.55,30.453508,-84.31867,70.19,NaN,,0,82.99355,,0 / 20,11707,2018-04-20 21:36:57:859,,,
0.0709,-1.4332,9.8489,-0.4433,-1.387,9.7013,-0.5924,0.0207,-0.0235,2.00E-04,1.00E-04,-2.00E-04,45.427,-15.88,36.97,-31.47,28.27,8.13,2.62,0,1015.15,24.55,30.453508,-84.31867,70.19,NaN,,0,82.99355,,0 / 20,11806,2018-04-20 21:36:57:958,,,
0.0912,-1.4404,9.8381,-0.4384,-1.3869,9.7016,-0.5768,0.0136,-0.0267,4.00E-04,1.00E-04,-2.00E-04,45.427,-15.78,36.8,-31.16,28.27,8.13,2.62,0,1015.15,24.55,30.453508,-84.31867,70.19,NaN,,0,82.99355,,0 / 20,11906,2018-04-20 21:36:58:058,,,
0.0816,-1.4344,9.8537,-0.4271,-1.3871,9.702,-0.5732,0.0206,-0.0289,-2.00E-04,0,-1.00E-04,45.427,-16,37.9,-31.91,27.68,8.13,2.56,0,1015.15,24.873,30.453508,-84.31867,70.19,NaN,,0,82.99355,,0 / 20,12007,2018-04-20 21:36:58:159,,,
0.0768,-1.4307,9.8381,-0.4177,-1.3876,9.7024,-0.5592,0.0105,-0.0309,-1.00E-04,0,4.00E-04,45.427,-15.52,37.51,-31.25,27.47,8.13,2.49,0,1015.15,24.873,30.453508,-84.31867,70.19,NaN,,0,82.99355,,0 / 20,12107,2018-04-20 21:36:58:259,,,
0.0852,-1.4356,9.8477,-0.4134,-1.3876,9.7026,-0.5416,0.0198,-0.0354,0,5.00E-04,-2.00E-04,45.427,-15.87,37.51,-29.97,27.28,8.13,2.44,0,1015.14,24.873,30.453508,-84.31867,70.19,NaN,,0,82.99355,,0 / 20,12207,2018-04-20 21:36:58:359,,,
0.0733,-1.4404,9.8513,-0.4023,-1.388,9.703,-0.5461,0.015,-0.0328,-1.00E-04,-2.00E-04,-1.00E-04,45.427,-16.06,37.68,-30.79,27.41,8.13,2.4,0,1015.15,24.625,30.453508,-84.31867,70.19,NaN,,0,82.99355,,0 / 20,12307,2018-04-20 21:36:58:459,,,
0.0733,-1.4344,9.8465,-0.3976,-1.3881,9.7031,-0.55,0.0159,-0.0217,0,-3.00E-04,3.00E-04,45.427,-15.43,37.6,-30.99,26.01,8.13,2.35,0,1015.15,24.625,30.453508,-84.31867,70.19,NaN,,0,82.99355,,0 / 20,12407,2018-04-20 21:36:58:559,,,
0.084,-1.4392,9.8489,-0.387,-1.3887,9.7035,-0.5231,0.0081,-0.0238,-2.00E-04,-2.00E-04,1.00E-04,45.427,-16.14,37.54,-31.31,27.33,8.14,2.28,0,1015.15,24.625,30.453508,-84.31867,70.19,NaN,,0,82.99355,,0 / 20,12507,2018-04-20 21:36:58:659,,,
0.0768,-1.4308,9.8525,-0.3827,-1.3889,9.7036,-0.5193,0.0183,-0.0271,-7.00E-04,-1.00E-04,1.00E-04,45.427,-15.51,37.36,-31.35,28.03,8.14,2.26,0,1015.16,24.869,30.453508,-84.31867,70.19,NaN,,0,82.99355,,0 / 20,12607,2018-04-20 21:36:58:759,,,
0.0828,-1.4404,9.8441,-0.3744,-1.3896,9.7039,-0.515,0.0169,-0.0318,-2.00E-04,8.00E-04,-1.00E-04,45.427,-15.45,37.1,-31.97,26.77,8.14,2.23,0,1015.16,24.869,30.453508,-84.31867,70.19,NaN,,0,82.99355,,0 / 20,12707,2018-04-20 21:36:58:859,,,
0.0697,-1.4271,9.8417,-0.3654,-1.3895,9.7042,-0.5003,-0.0023,-0.0303,5.00E-04,0.0018,-1.00E-04,45.427,-15.02,38.04,-31.07,25.89,8.14,2.17,0,1015.15,24.869,30.453508,-84.31867,70.19,NaN,,0,82.99355,,0 / 20,12807,2018-04-20 21:36:58:959,,,
0.0828,-1.4428,9.8645,-0.36,-1.3898,9.7044,-0.5098,0.0231,-0.0095,-2.00E-04,-0.0016,2.00E-04,45.427,-15.56,37.41,-31.66,28.09,8.14,2.12,0,1015.15,24.869,30.453508,-84.31867,70.19,NaN,,0,82.99355,,0 / 20,12906,2018-04-20 21:36:59:058,,,
0.084,-1.4247,9.8441,-0.3852,-1.3864,9.7039,-0.4848,0.0653,-0.1115,0,0.0513,-2.00E-04,45.427,-15.6,37,-31.26,27.91,8.12,2.11,0,1015.15,25.722,30.453508,-84.31867,70.19,NaN,,0,82.99355,,0 / 20,13006,2018-04-20 21:36:59:158,,,
0.0386,-1.4873,9.9281,-0.4272,-1.3813,9.7029,-0.5298,-0.0996,0.1388,0.0014,0.0753,-0.0028,45.427,-15.6,38.17,-30.67,27.48,8.09,2.52,0,1015.15,25.722,30.453508,-84.31867,70.19,NaN,,0,82.99355,,0 / 20,13107,2018-04-20 21:36:59:259,,,
-0.0581,-1.5367,9.6186,-0.5958,-1.3566,9.6975,-0.406,-0.092,0.1634,0.0382,0.2087,0.0043,45.427,-15.77,37.93,-31.6,28.26,7.95,3.52,0,1015.14,25.722,30.453508,-84.31867,70.19,NaN,,0,82.99355,,0 / 20,13207,2018-04-20 21:36:59:359,,,
-0.3087,-1.3405,9.9497,-0.8497,-1.3389,9.681,-0.5311,-0.1224,-0.03,0.0401,0.2165,0.0052,45.427,-14.19,37.75,-31.68,26.1,7.99,4.25,0,1015.14,29.859,30.453508,-84.31867,70.19,NaN,,0,82.99355,,0 / 20,13307,2018-04-20 21:36:59:459,,,
-0.6501,-1.3236,9.8777,-1.0479,-1.3621,9.6583,-0.4827,0.0481,0.0233,-0.0329,0.3299,0.0202,45.427,-14.08,37.49,-31.83,28.17,7.98,6.19,0,1015.14,29.859,30.453508,-84.31867,70.19,NaN,,0,82.99355,,0 / 20,13407,2018-04-20 21:36:59:559,,,
-0.6728,-1.4729,9.9161,-1.238,-1.3621,9.6358,-0.414,0.1493,-0.2429,0.0179,0.1256,0.0454,45.427,-12.88,37.18,-31.82,27.37,8.07,6.94,0,1015.14,29.859,30.453508,-84.31867,70.19,NaN,,0,82.99355,,0 / 20,13507,2018-04-20 21:36:59:659,,,
-0.8006,-1.326,9.669,-1.1476,-1.3249,9.6521,-0.4107,0.0858,-0.1413,0.0581,-0.1313,-0.0014,45.427,-12.82,37.08,-32.02,27.12,7.76,6.78,0,1015.14,32.893,30.453508,-84.31867,70.19,NaN,,0,82.99355,,0 / 20,13607,2018-04-20 21:36:59:759,,,
-0.6633,-1.4657,10.012,-0.8496,-1.242,9.6939,-0.6926,0.0473,0.1045,0.0592,-0.2129,0.0264,45.427,-12.75,36.2,-31.58,26.98,7.5,5.76,0,1015.15,32.893,30.453508,-84.31867,70.19,NaN,,0,82.99355,,0 / 20,13707,2018-04-20 21:36:59:859,,,
-0.3028,-1.084,10.3911,-0.9964,-1.1134,9.6955,-0.3463,-0.0592,0.2954,0.0897,0.2645,0.0227,45.427,-13.51,37.52,-31.82,26.13,6.8,4.98,0,1015.15,32.893,30.453508,-84.31867,70.19,NaN,,0,82.99355,,0 / 20,13807,2018-04-20 21:36:59:959,,,
-0.4627,-1.2694,9.6822,-1.0664,-1.1357,9.6855,-0.391,-0.1672,-0.4525,-0.0271,0.1309,-0.0094,45.427,-12.37,36.96,-32.94,25.14,6.65,6.28,0,1015.15,32.668,30.453508,-84.31867,70.19,NaN,,0,82.99355,,0 / 20,13907,2018-04-20 21:37:00:059,,,
-0.7337,-1.0058,10.2507,-1.1094,-1.4697,9.6356,0.3796,1.123,-0.9986,-0.3302,0.0915,-0.2744,45.427,-13.06,37.2,-32.69,27.62,8.62,6.57,0,1015.15,32.668,30.453508,-84.31867,70.19,NaN,,0,82.99355,,0 / 20,14006,2018-04-20 21:37:00:158,,,
-0.3887,-1.5885,10.4247,-0.7237,-2.0297,9.5704,-0.035,0.27,-0.5706,-0.8313,-0.5825,-0.0601,45.427,-13.34,39.18,-30.86,25.58,11.94,4.32,0,1015.15,32.668,30.453508,-84.31867,70.19,NaN,,0,82.99355,,0 / 20,14107,2018-04-20 21:37:00:259,,,
0.6904,-1.2261,9.3164,0.0853,-3.99,8.9615,-1.6972,1.9759,-4.4773,-1.4591,-0.6537,0.3664,45.427,-15.95,45.89,-22.07,24.46,19.55,1.1,0,1015.14,32.668,30.453508,-84.31867,70.19,NaN,,0,82.99355,,0 / 20,14207,2018-04-20 21:37:00:359,,,
0.7334,-4.2252,7.5532,0.4666,-3.8894,8.9939,-0.0309,2.7847,-3.8538,-0.2688,-0.5694,0.0193,45.427,-18.34,46.76,-20.66,26.11,23.36,-2.97,0,1015.15,42.405,30.453508,-84.31867,70.19,NaN,,0,82.99355,,0 / 20,14307,2018-04-20 21:37:00:459,,,
0.5078,-4.7453,10.9944,0.5369,-4.083,8.9038,-0.5248,1.0497,-3.344,-0.0785,0.1648,0.2748,45.427,-18.31,47.27,-21.06,25.84,24.28,-4.5,2,1015.13,42.405,30.453508,-84.31867,70.19,NaN,,0,82.99355,,0 / 20,14407,2018-04-20 21:37:00:559,,,
0.5173,-5.5748,12.2046,-0.055,-3.0034,9.3388,-0.0938,1.3913,-2.3633,1.3386,0.1499,0.9048,45.427,-15.09,47.18,-22.33,22.58,22.65,-1.4,2,1015.13,42.405,30.453508,-84.31867,70.19,NaN,,0,82.99355,,0 / 20,14507,2018-04-20 21:37:00:659,,,
1.0151,-4.9114,11.2847,-0.5593,-2.3782,9.5009,-1.0642,1.9356,-0.1669,1.0732,0.7238,0.3243,42.258,-12.33,43.94,-26.8,20.48,14.03,3.37,2,1015.12,31.909,30.453508,-84.31867,70.19,NaN,,0,82.99355,,0 / 20,14607,2018-04-20 21:37:00:759,,,
-0.7898,-2.8346,10.066,-0.822,-1.0014,9.7241,-0.7805,0.3974,1.2334,1.3706,0.0845,0.2072,42.258,-9.53,39.78,-31.75,19.07,5.86,4.83,2,1015.12,31.909,30.453508,-84.31867,70.19,NaN,,0,82.99355,,0 / 20,14707,2018-04-20 21:37:00:859,,,
-0.7313,-1.0094,9.2792,-0.8859,-0.2603,9.7664,-0.1005,0.6102,0.8046,1.2038,0.0646,0.0433,42.258,-8.81,36.07,-33,18.77,1.52,5.18,2,1015.11,31.909,30.453508,-84.31867,70.19,NaN,,0,82.99355,,0 / 20,14807,2018-04-20 21:37:00:959,,,
-1.438,-0.3279,8.2477,-1.3587,1.333,9.6236,0.0868,0.361,1.9237,1.4869,0.1782,0.0063,42.258,-7.43,30.14,-38.06,20.36,-2.52,7.22,2,1015.09,35.624,30.453508,-84.31867,70.19,NaN,,0,82.99355,,0 / 20,14907,2018-04-20 21:37:01:059,,,
-1.3497,0.9844,6.5792,-2.0882,2.3127,9.302,-0.8145,0.1185,2.2374,0.6654,0.6028,-0.089,42.258,-5.84,25.13,-40.35,22.22,-11.34,10.35,2,1015.08,35.624,30.453508,-84.31867,70.19,NaN,,0,82.99355,,0 / 20,15007,2018-04-20 21:37:01:159,,,
-1.2064,2.0102,7.2413,-2.2061,2.6684,9.1787,-0.291,0.1881,2.5788,0.6642,0.192,-0.2291,42.258,-3.28,23.28,-41.11,20.63,-13.64,12.65,2,1015.08,35.624,30.453508,-84.31867,70.19,NaN,,0,82.99355,,0 / 20,15107,2018-04-20 21:37:01:259,,,
-2.3512,2.1029,7.0626,-2.3003,3.0491,9.0359,-1.2401,-0.5998,2.1377,0.2829,-1.00E-04,-0.3658,42.258,-4.44,19.87,-41.62,24.42,-17.4,14.03,2,1015.08,27.85,30.453508,-84.31867,70.19,NaN,,0,82.99355,,0 / 20,15207,2018-04-20 21:37:01:359,,,
-0.7074,3.349,7.6755,-1.8421,3.3436,9.0368,-1.01,-1.2996,-0.9067,0.502,-0.8057,-0.0419,138.393,-7.41,17.61,-41.58,26.58,-19.93,11.52,2,1015.07,27.85,30.453508,-84.31867,70.19,NaN,,0,82.99355,,0 / 20,15307,2018-04-20 21:37:01:459,,,
-2.8908,2.5387,7.2713,-0.6677,3.137,9.2709,-0.4505,-0.3275,-3.2685,-0.1309,-2.3014,-0.5248,138.393,-12.65,17.41,-41.42,28.85,-18.65,4.12,2,1015.07,27.85,30.453508,-84.31867,70.19,NaN,,0,82.99355,,0 / 20,15407,2018-04-20 21:37:01:559,,,
0.0565,2.3353,10.6369,-0.6119,4.1818,8.8529,-0.3378,-0.0739,-0.5465,1.0751,-0.2471,-0.721,138.393,-14.14,15.62,-39.8,28.93,-21.93,3.3,2,1015.07,27.85,30.453508,-84.31867,70.19,NaN,,0,82.99355,,0 / 20,15507,2018-04-20 21:37:01:659,,,
-0.8185,3.3803,9.1329,-0.9736,4.2281,8.7984,-0.2423,-0.1003,-1.101,0.1686,0.3024,-0.7971,138.393,-16.05,9.43,-40.91,39.31,-25.53,6.31,2,1015.07,29.851,30.453508,-84.31867,70.19,NaN,,0,82.99355,,0 / 20,15606,2018-04-20 21:37:01:758,,,
-1.66,4.807,8.9038,-1.04,4.7731,8.5072,-0.5181,-0.3141,1.3177,0.4451,-0.2138,-0.1228,138.393,-15.18,6.43,-41.01,40.91,-27.9,7.57,2,1015.07,29.851,30.453508,-84.31867,70.19,NaN,,0,82.99355,,0 / 20,15707,2018-04-20 21:37:01:859,,,
-0.6525,5.0875,7.2749,-0.703,4.2882,8.7951,-0.2567,0.1554,0.7832,-0.8141,-0.7509,-0.242,138.393,-17.95,9.87,-39.55,39.32,-25.92,4.57,2,1015.06,29.851,30.453508,-84.31867,70.19,NaN,,0,82.99355,,0 / 20,15806,2018-04-20 21:37:01:958,,,
-0.0736,3.4851,8.8018,-0.4059,3.5244,9.146,-0.6703,0.3239,0.1964,-0.3686,-0.2095,0.0217,138.393,-18.92,11.81,-39.83,39.58,-22.2,3.36,2,1015.06,29.168,30.453508,-84.31867,70.19,NaN,,0,82.99355,,0 / 20,15907,2018-04-20 21:37:02:059,,,
0.2881,3.4899,9.0897,-0.4417,3.5368,9.1396,-0.6698,-0.0398,0.0746,0.1227,0.2934,0.0631,86.628,-19.86,12.83,-39.92,39.92,-21.13,2.77,2,1015.06,29.168,30.453508,-84.31867,70.19,NaN,,0,82.99355,,0 / 20,16007,2018-04-20 21:37:02:159,,,
-0.3923,3.7872,9.3116,-0.9144,3.5028,9.1176,-0.1377,0.1356,-0.0948,-0.1427,0.4662,-0.2052,86.628,-17.43,11.96,-40.66,39.85,-20.92,5.73,2,1015.06,29.168,30.453508,-84.31867,70.19,NaN,,0,82.99355,,0 / 20,16107,2018-04-20 21:37:02:259,,,
-0.871,3.3177,9.3284,-1.0683,3.4123,9.1352,0.3216,-0.8846,0.0715,-0.0267,-0.109,-0.0199,86.628,-16.44,12.22,-40.95,40.28,-20.41,7.13,2,1015.05,26.494,30.453508,-84.31867,70.19,NaN,,0,82.99355,,0 / 20,16207,2018-04-20 21:37:02:359,,,
-0.8483,3.7897,8.7754,-0.992,3.3947,9.1503,-0.5772,-0.2836,0.239,-0.0358,-0.0875,0.1255,86.628,-16.02,12.55,-40.88,38.33,-20.25,6.19,2,1015.05,26.494,30.453508,-84.31867,70.19,NaN,,0,82.99355,,0 / 20,16306,2018-04-20 21:37:02:458,,,
-0.3159,3.0324,9.5239,-0.8209,3.2092,9.2338,-0.5774,-0.0047,-0.5699,-0.0772,-0.1201,-0.0032,86.628,-16.99,13.71,-39.54,38.86,-19.3,5.58,2,1015.05,26.494,30.453508,-84.31867,70.19,NaN,,0,82.99355,,0 / 20,16407,2018-04-20 21:37:02:559,,,
-0.4687,3.4345,9.2192,-0.5875,3.2565,9.235,-0.3898,0.1611,0.9256,0.0975,-0.3818,0.0136,86.628,-18.5,13.54,-40.34,38.18,-19.39,3.64,2,1015.05,27.331,30.453508,-84.31867,70.19,NaN,,0,82.99355,,0 / 20,16507,2018-04-20 21:37:02:659,,,
-0.4592,2.8891,8.9733,-0.2734,2.5528,9.4681,-0.7528,-0.0661,-1.2883,-0.7744,-0.3132,-0.1614,86.628,-20.25,15.39,-38.85,39.84,-17.85,2.46,2,1015.04,27.331,30.453508,-84.31867,70.19,NaN,,0,82.99355,,0 / 20,16607,2018-04-20 21:37:02:759,,,
-0.2861,2.3316,9.2696,-0.5607,2.5216,9.4638,-0.0544,-0.0768,0.79,0.0509,0.1978,-0.0774,86.628,-19.85,16.2,-39.18,40.86,-14.83,2.67,2,1015.04,27.331,30.453508,-84.31867,70.19,NaN,,0,82.99355,,0 / 20,16707,2018-04-20 21:37:02:859,,,
-0.7301,2.5544,8.9805,-0.5122,2.3707,9.5054,-0.1125,0.1479,-0.0796,-0.2694,-0.0475,0.05,86.628,-18.71,17.62,-38.77,38.35,-13.98,3.08,2,1015.04,27.331,30.453508,-84.31867,70.19,NaN,,0,82.99355,,0 / 20,16806,2018-04-20 21:37:02:958,,,
-0.4365,2.1824,9.7014,-0.6134,2.3362,9.508,-0.5634,0.2315,0.3911,-0.0472,0.1733,0.0196,86.628,-19.23,17.7,-39.13,38.32,-14.14,3.15,2,1015.05,26.425,30.453508,-84.31867,70.19,NaN,,0,82.99355,,0 / 20,16907,2018-04-20 21:37:03:059,,,
0.3478,2.2654,10.0924,-0.7295,2.025,9.571,-1.249,-0.5202,-0.7332,-0.5448,0.1754,-0.0454,86.628,-18.55,17.94,-40.54,40.58,-11.91,4.36,2,1015.05,26.425,30.453508,-84.31867,70.19,NaN,,0,82.99355,,0 / 20,17006,2018-04-20 21:37:03:158,,,
-0.5523,1.8729,9.5898,-0.8076,1.9552,9.5792,-0.0216,-0.0551,0.212,-0.0381,-0.1698,-0.0593,86.628,-17.43,18.18,-39.65,38.74,-11.5,4.82,2,1015.05,26.425,30.453508,-84.31867,70.19,NaN,,0,82.99355,,0 / 20,17107,2018-04-20 21:37:03:259,,,
-0.7993,2.074,9.6558,-0.4772,1.9989,9.5923,0.0312,0.0267,-0.0375,0.0565,-0.2737,-0.0569,86.628,-19.37,18.46,-38.1,40.7,-11.52,3.79,2,1015.05,50.596,30.453508,-84.31867,70.19,NaN,,0,82.99355,,0 / 20,17207,2018-04-20 21:37:03:359,,,
-0.6131,1.9151,9.7458,-0.4486,2.0402,9.585,-0.1094,0.1279,-0.1717,0.0926,-0.0883,-0.0328,86.628,-20.41,17.25,-39.37,41.95,-11.76,2.85,2,1015.05,50.596,30.453508,-84.31867,70.19,NaN,,0,82.99355,,0 / 20,17306,2018-04-20 21:37:03:458,,,
-0.4472,1.7429,9.8321,-0.4174,1.9718,9.6007,-0.275,-0.0609,-0.3034,-0.0095,-0.0968,0.1132,86.628,-19.55,18.58,-39.07,39.94,-11.58,2.92,2,1015.04,50.596,30.453508,-84.31867,70.19,NaN,,0,82.99355,,0 / 20,17406,2018-04-20 21:37:03:558,,,
-0.2502,1.9789,9.747,-0.3803,1.9762,9.6014,-0.2819,-0.1806,0.0395,0.003,-0.0253,0.1244,86.628,-19.81,19.01,-39.06,39.3,-11.62,2.27,2,1015.05,48.561,30.453508,-84.31867,70.19,NaN,,0,82.99355,,0 / 20,17506,2018-04-20 21:37:03:658,,,
0.016,2.1414,9.5934,-0.2366,2.0626,9.5878,-0.3368,-0.1105,-0.1256,0.0916,-0.0913,-8.00E-04,86.628,-19.89,18.75,-39.02,38.66,-11.82,1.73,2,1015.05,48.561,30.453508,-84.31867,70.19,NaN,,0,82.99355,,0 / 20,17607,2018-04-20 21:37:03:759,,,
0.0422,2.1487,9.8249,-0.2409,2.1216,9.5748,-0.1625,0.1162,-0.146,0.0523,-0.0069,-0.0315,86.628,-20.55,17.95,-37.97,40.53,-12.49,1.44,2,1015.04,48.561,30.453508,-84.31867,70.19,NaN,,0,82.99355,,0 / 20,17707,2018-04-20 21:37:03:859,,,
-0.0963,2.0427,9.7062,-0.2079,2.1477,9.5698,-0.2163,-0.1249,0.0687,-0.0071,-0.029,0.0751,86.628,-20.99,17.32,-38.56,41.12,-12.65,1.24,2,1015.04,26.17,30.453508,-84.31867,70.19,NaN,,0,82.99355,,0 / 20,17807,2018-04-20 21:37:03:959,,,
0.0721,2.1487,9.6306,-0.0559,2.1997,9.56,-0.4751,-0.1576,0.4058,0.0419,-0.1294,0.0146,86.628,-21.14,17.48,-38.76,40.67,-12.79,0.88,2,1015.04,26.17,30.453508,-84.31867,70.19,NaN,,0,82.99355,,0 / 20,17907,2018-04-20 21:37:04:059,,,
0.2344,2.3786,9.6618,0.0012,2.1663,9.5678,-0.0548,0.0656,-0.3173,-0.0448,-0.119,-0.0434,86.628,-21.16,17.62,-37.59,39.18,-12.96,0.34,2,1015.04,26.17,30.453508,-84.31867,70.19,NaN,,0,82.99355,,0 / 20,18007,2018-04-20 21:37:04:159,,,
0.0052,1.9957,10.0144,0.0072,2.0454,9.5944,-0.0549,-0.092,0.0103,-0.035,0.0093,0.012,86.628,-21.09,18.44,-37.72,39.34,-12.15,-0.03,2,1015.04,26.17,30.453508,-84.31867,70.19,NaN,,0,82.99355,,0 / 20,18107,2018-04-20 21:37:04:259,,,
0.0697,2.0776,10.0024,-0.0118,2.0483,9.5938,-0.3156,-0.0288,0.1972,-0.0014,0.0399,0.0108,80.289,-21.97,19.04,-37.72,39.75,-12.05,0.07,2,1015.04,46.195,30.453508,-84.31867,70.19,NaN,,0,82.99355,,0 / 20,18207,2018-04-20 21:37:04:359,,,
0.3442,2.0608,9.7458,-0.0088,1.9628,9.6116,-0.3242,-0.0153,-0.2132,-0.0817,0.0227,0.0066,80.289,-21.18,18.03,-37.52,39.63,-11.79,0.04,2,1015.05,46.195,30.453508,-84.31867,70.19,NaN,,0,82.99355,,0 / 20,18307,2018-04-20 21:37:04:459,,,Drop
0.238,1.8778,9.8813,-0.0082,1.9393,9.6164,-0.288,-0.1687,0.1186,-0.068,0.0084,-0.0347,80.289,-20.96,18.68,-37.61,38.61,-11.66,-0.01,2,1015.05,46.195,30.453508,-84.31867,70.19,NaN,,0,82.99355,,0 / 20,18407,2018-04-20 21:37:04:559,,,Drop
0.115,1.9428,9.7242,-0.0071,1.9095,9.6224,-0.1619,-0.0298,-6.00E-04,-0.0506,8.00E-04,-0.0118,80.289,-21.38,18.4,-37.78,40.01,-11.22,0.04,2,1015.05,42.246,30.453508,-84.31867,70.19,NaN,,0,82.99355,,0 / 20,18507,2018-04-20 21:37:04:659,,,Drop
0.1509,1.8862,9.759,0.0202,1.8549,9.633,-0.1998,-0.0468,-0.1017,9.00E-04,-0.0596,0.0201,80.289,-21.93,19.4,-37.96,40.3,-10.9,-0.12,2,1015.05,42.246,30.453508,-84.31867,70.19,NaN,,0,82.99355,,0 / 20,18607,2018-04-20 21:37:04:759,,,Drop
0.1497,1.7863,10.0096,0.0522,1.846,9.6346,-0.1723,-0.1257,0.1916,-0.0191,-0.0478,0.0114,80.289,-21.25,19.12,-38.32,38.83,-10.85,-0.31,2,1015.05,42.246,30.453508,-84.31867,70.19,NaN,,0,82.99355,,0 / 20,18707,2018-04-20 21:37:04:859,,,Drop
0.1353,1.9271,9.6654,0.0945,1.8696,9.6297,-0.1874,-0.076,0.2138,-0.0193,-0.0201,0.0321,80.289,-21.1,18.64,-37.92,38.54,-11.08,-0.46,2,1015.05,24.601,30.453508,-84.31867,70.19,NaN,,0,82.99355,,0 / 20,18807,2018-04-20 21:37:04:959,,,Drop
0.2655,1.8766,9.8081,0.0811,1.8204,9.6393,-0.2421,-0.0958,-0.1705,-0.0405,-0.0068,0.0538,80.289,-22.22,19.52,-38.07,39.04,-10.69,-0.48,2,1015.05,24.601,30.453508,-84.31867,70.19,NaN,,0,82.99355,,0 / 20,18907,2018-04-20 21:37:05:059,,,Drop
0.3466,1.8862,10.0025,0.0829,1.814,9.6405,-0.2205,0.0758,0.3587,0.0148,0.0248,0.0022,80.289,-22.27,19.53,-38.38,39.05,-10.66,-0.49,2,1015.04,24.601,30.453508,-84.31867,70.19,NaN,,0,82.99355,,0 / 20,19007,2018-04-20 21:37:05:159,,,Drop
0.2607,1.9199,9.3979,0.0728,1.8242,9.6386,-0.1758,-0.0188,0.2646,-0.0732,0.0313,-0.0258,80.289,-21.74,19.29,-37.97,39.82,-10.99,-0.57,2,1015.04,39.821,30.453508,-84.31867,70.19,NaN,,0,82.99355,,0 / 20,19107,2018-04-20 21:37:05:259,,,Drop
0.207,1.7802,9.8285,0.0495,1.7978,9.6437,-0.1303,0.0475,-0.256,-0.0462,0.042,-0.0052,80.289,-20.82,19.09,-38.11,39.03,-10.56,-0.29,2,1015.04,39.821,30.453508,-84.31867,70.19,NaN,,0,82.99355,,0 / 20,19207,2018-04-20 21:37:05:359,,,Drop
0.2511,1.9319,9.6054,0.0633,1.8273,9.6381,-0.207,-0.1259,0.0556,0.0197,-0.0193,0.0069,80.289,-22.14,19.92,-38.01,39.11,-10.74,-0.38,2,1015.05,39.821,30.453508,-84.31867,70.19,NaN,,0,82.99355,,0 / 20,19307,2018-04-20 21:37:05:459,,,Drop
0.2547,1.885,9.9317,0.0478,1.8182,9.6399,-0.1971,-0.0804,-0.3502,-2.00E-04,0.0282,0.0047,80.289,-21.49,18.82,-37.72,38.96,-10.68,-0.28,2,1015.05,39.821,30.453508,-84.31867,70.19,NaN,,0,82.99355,,0 / 20,19407,2018-04-20 21:37:05:559,,,Drop
0.0804,1.9211,9.5167,0.0083,1.8369,9.6365,-0.1853,-0.1285,0.2971,0.0321,0.0428,0.0053,80.289,-21.4,19.07,-37.81,39.03,-10.72,-0.19,2,1015.05,42.997,30.453508,-84.31867,70.19,NaN,,0,82.99355,,0 / 20,19507,2018-04-20 21:37:05:659,,,Drop
0.0231,1.8645,9.585,-0.0542,1.8316,9.6373,-0.2297,-0.0582,-0.0497,0.0713,0.0667,0.0154,80.289,-20.96,20.23,-38.39,38.38,-10.5,0.08,2,1015.05,42.997,30.453508,-84.31867,70.19,NaN,,0,82.99355,,0 / 20,19607,2018-04-20 21:37:05:759,,,Drop
-0.0676,1.9379,9.6954,-0.0879,1.8676,9.6302,0.1144,-0.4458,0.2756,0.0532,0.0646,0.035,80.289,-20.72,18.94,-38.57,39.35,-10.97,0.52,2,1015.05,42.997,30.453508,-84.31867,70.19,NaN,,0,82.99355,,0 / 20,19707,2018-04-20 21:37:05:859,,,Drop
-0.3434,2.3618,9.1856,0.3417,2.2363,9.5456,0.0357,-0.679,3.3098,0.4532,-0.6044,0.0604,80.289,-20.82,19.36,-39.02,39.4,-11.14,0.69,2,1015.05,25.136,30.453508,-84.31867,70.19,NaN,,0,82.99355,,0 / 20,19807,2018-04-20 21:37:05:959,,,Drop
0.152,1.5599,1.2417,0.6709,2.7381,9.3962,-1.2481,-3.0785,7.7932,0.7413,-0.8932,-0.454,80.289,-24.29,15.46,-36.72,40.23,-16.21,-4.08,2,1015.03,25.136,30.453508,-84.31867,70.19,NaN,,0,82.99355,,0 / 20,19907,2018-04-20 21:37:06:059,,,Drop
0.9184,-0.5904,0.2978,-3.8475,1.626,8.8763,-4.821,2.2992,8.6826,0.0299,3.2148,-4.7588,80.289,-13.44,10.94,-40.77,60.11,-9.54,23.43,2,1015.04,25.136,30.453508,-84.31867,70.19,NaN,,0,82.99355,,0 / 20,20007,2018-04-20 21:37:06:159,,,Drop
0.9351,-0.7204,0.3181,-6.7239,-0.2482,7.1389,-7.3545,0.7273,7.0121,1.8123,2.2361,-4.539,80.289,-3.82,6.49,-41.73,73.23,-4.17,35.37,2,1015.05,37.291,30.453508,-84.31867,70.19,NaN,,0,82.99355,,0 / 20,20107,2018-04-20 21:37:06:259,,,Drop
-5.9503,-4.614,8.1061,-4.3431,2.3297,8.4821,38.4565,12.2823,-4.4203,5.9097,-2.7301,-1.5648,80.289,10.54,-0.26,-38.11,92.83,1.45,43.29,2,1015.05,37.291,30.453508,-84.31867,70.19,NaN,,0,82.99355,,0 / 20,20207,2018-04-20 21:37:06:359,,,Drop
24.0851,18.2385,105.0114,-0.5293,3.5438,9.1322,-3.392,3.4812,7.1048,1.6724,-0.6028,0.0662,80.289,-28.16,-14.79,-25.62,105.45,-15.23,5.79,0,1015.06,37.291,30.453508,-84.31867,70.19,NaN,,0,82.99355,,0 / 20,20306,2018-04-20 21:37:06:458,,,Drop
-0.1368,1.5732,0.8999,-0.6929,3.7722,9.0292,-3.0213,-1.8462,-3.1469,0.6197,0.1451,-0.3997,101.418,-27.73,-17.03,-23.47,104.54,-22.61,4.39,0,1015.06,60.459,30.453508,-84.31867,70.19,NaN,,0,82.99355,,0 / 20,20407,2018-04-20 21:37:06:559,,,Drop
2.6183,3.4706,13.8167,-0.7625,3.2837,9.2126,-2.6478,0.1717,0.2102,0.2007,-0.0713,-0.0052,101.418,-28.45,-16,-25.5,104.05,-18.88,5.04,2,1015.08,60.459,30.453508,-84.31867,70.19,NaN,,0,82.99355,,0 / 20,20506,2018-04-20 21:37:06:658,,,Drop
1.9844,3.0516,9.6834,-0.7351,3.2587,9.2237,-2.7367,-0.1007,0.1929,0.0045,0.0017,0,101.418,-27.74,-15.67,-25.68,103.54,-19.4,4.56,2,1015.09,60.459,30.453508,-84.31867,70.19,NaN,,0,82.99355,,0 / 20,20607,2018-04-20 21:37:06:759,,,Drop
1.9104,2.9782,9.2024,-0.6908,3.2619,9.226,-2.6376,0.1433,0.1772,0.0061,-0.0021,-1.00E-04,101.418,-27.97,-15.97,-25.69,103.49,-19.42,4.28,2,1015.09,60.459,30.453508,-84.31867,70.19,NaN,,0,82.99355,,0 / 20,20706,2018-04-20 21:37:06:858,,,Drop
1.8961,3.0853,9.1628,-0.6386,3.259,9.2308,-2.6345,0.1446,0.0937,-0.0012,-1.00E-04,4.00E-04,101.418,-28.11,-16.07,-25.44,104.11,-19.41,4.14,2,1015.1,27.211,30.453508,-84.31867,70.19,NaN,,0,82.99355,,0 / 20,20807,2018-04-20 21:37:06:959,,,Drop
1.9391,3.0962,9.2576,-0.6165,3.2589,9.2323,-2.5981,0.1303,0.1311,9.00E-04,-5.00E-04,-2.00E-04,101.418,-27.27,-15.39,-25.77,102.06,-19.4,3.82,2,1015.11,27.211,30.453508,-84.31867,70.19,NaN,,0,82.99355,,0 / 20,20907,2018-04-20 21:37:07:059,,,Drop
1.9295,3.0938,9.272,-0.5726,3.2573,9.2357,-2.5638,0.1295,0.0938,-0.001,-4.00E-04,6.00E-04,101.418,-27.67,-15.49,-24.5,102.33,-19.4,3.68,2,1015.11,27.211,30.453508,-84.31867,70.19,NaN,,0,82.99355,,0 / 20,21007,2018-04-20 21:37:07:159,,,Drop
1.9176,3.0986,9.2228,-0.5442,3.2565,9.2377,-2.5132,0.1143,0.1182,1.00E-04,-1.00E-04,0,33.806,-27.87,-16.55,-24.79,105.75,-19.39,3.37,2,1015.12,24.837,30.453508,-84.31867,70.19,NaN,,0,82.99355,,0 / 20,21107,2018-04-20 21:37:07:259,,,Drop
1.9259,3.1034,9.2168,-0.5023,3.2556,9.2404,-2.4679,0.131,0.127,0,-1.00E-04,0,33.806,-28.46,-15.74,-25.39,104.02,-19.39,3.24,2,1015.13,24.837,30.453508,-84.31867,70.19,NaN,,0,82.99355,,0 / 20,21206,2018-04-20 21:37:07:358,,,Drop
1.9355,3.095,9.2252,-0.4546,3.254,9.2434,-2.4403,0.128,0.127,0,1.00E-04,1.00E-04,33.806,-27.95,-16.69,-25.46,105.72,-19.38,2.99,2,1015.13,24.837,30.453508,-84.31867,70.19,NaN,,0,82.99355,,0 / 20,21307,2018-04-20 21:37:07:459,,,Drop
1.9307,3.0962,9.2456,-0.4347,3.2533,9.2446,-2.4141,0.1242,0.1295,-1.00E-04,6.00E-04,2.00E-04,33.806,-27.96,-16.27,-25.85,103.33,-19.37,2.69,2,1015.13,25.245,30.453508,-84.31867,70.19,NaN,,0,82.99355,,0 / 20,21407,2018-04-20 21:37:07:559,,,
1.9283,3.0962,9.2288,-0.3939,3.2521,9.2469,-2.4,0.1332,0.1222,2.00E-04,-9.00E-04,-2.00E-04,33.806,-28.79,-15.62,-26.06,102.92,-19.36,2.57,2,1015.13,25.245,30.453508,-84.31867,70.19,NaN,,0,82.99355,,0 / 20,21506,2018-04-20 21:37:07:658,,,
1.9295,3.0914,9.2372,-0.3676,3.2509,9.2484,-2.3588,0.1197,0.1268,-4.00E-04,3.00E-04,-2.00E-04,33.806,-28.46,-15.7,-25.14,103.93,-19.35,2.28,2,1015.13,25.245,30.453508,-84.31867,70.19,NaN,,0,82.99355,,0 / 20,21607,2018-04-20 21:37:07:759,,,
1.9331,3.095,9.2336,-0.3286,3.2496,9.2503,-2.3128,0.1268,0.1228,1.00E-04,-1.00E-04,3.00E-04,33.806,-28.14,-15.62,-24.87,103.92,-19.35,2.16,2,1015.13,24.537,30.453508,-84.31867,70.19,NaN,,0,82.99355,,0 / 20,21706,2018-04-20 21:37:07:858,,,
1.9235,3.0986,9.2372,-0.2839,3.2479,9.2524,-2.2719,0.1145,0.1317,-4.00E-04,-5.00E-04,3.00E-04,33.806,-27.94,-15.93,-24.72,103.9,-19.34,1.92,2,1015.13,24.537,30.453508,-84.31867,70.19,NaN,,0,82.99355,,0 / 20,21806,2018-04-20 21:37:07:958,,,
1.9235,3.101,9.2336,-0.2647,3.247,9.2533,-2.2374,0.1294,0.136,-3.00E-04,-4.00E-04,0,33.806,-27.39,-16.15,-25.74,103.69,-19.33,1.76,2,1015.14,24.537,30.453508,-84.31867,70.19,NaN,,0,82.99355,,0 / 20,21906,2018-04-20 21:37:08:058,,,
1.9259,3.1022,9.236,-0.2274,3.245,9.255,-2.2202,0.1224,0.1392,-4.00E-04,-2.00E-04,-2.00E-04,33.806,-27.79,-15.94,-24.72,103.87,-19.32,1.52,2,1015.14,24.537,30.453508,-84.31867,70.19,NaN,,0,82.99355,,0 / 20,22007,2018-04-20 21:37:08:159,,,
1.9379,3.0901,9.2456,-0.2027,3.2443,9.2558,-2.1769,0.1104,0.1309,6.00E-04,0,0,33.806,-28.4,-16.15,-25.4,103.85,-19.31,1.25,2,1015.14,26.408,30.453508,-84.31867,70.19,NaN,,0,82.99355,,0 / 20,22107,2018-04-20 21:37:08:259,,,
1.9283,3.0865,9.2288,-0.1656,3.2428,9.257,-2.1436,0.1149,0.1405,-1.00E-04,-5.00E-04,2.00E-04,33.806,-28.59,-16.3,-25.2,103.39,-19.3,1.02,2,1015.14,26.408,30.453508,-84.31867,70.19,NaN,,0,82.99355,,0 / 20,22207,2018-04-20 21:37:08:359,,,
1.9259,3.095,9.23,-0.1472,3.2419,9.2577,-2.1252,0.1212,0.1351,1.00E-04,-2.00E-04,3.00E-04,33.806,-28.03,-15.61,-25.38,103.83,-19.3,0.91,2,1015.14,26.408,30.453508,-84.31867,70.19,NaN,,0,82.99355,,0 / 20,22306,2018-04-20 21:37:08:458,,,
1.9212,3.095,9.23,-0.1059,3.24,9.2589,-2.084,0.11,0.1313,-1.00E-04,3.00E-04,1.00E-04,33.806,-28.25,-14.99,-25.22,101.99,-19.29,0.66,2,1015.14,26.574,30.453508,-84.31867,70.19,NaN,,0,82.99355,,0 / 20,22407,2018-04-20 21:37:08:559,,,
1.9283,3.1046,9.2408,-0.0708,3.2388,9.2597,-2.0598,0.1062,0.1406,4.00E-04,-3.00E-04,2.00E-04,33.806,-28.49,-16.05,-25.65,103.16,-19.28,0.55,2,1015.14,26.574,30.453508,-84.31867,70.19,NaN,,0,82.99355,,0 / 20,22506,2018-04-20 21:37:08:658,,,
1.9295,3.0926,9.2324,-0.0479,3.2377,9.2602,-2.0335,0.1012,0.1317,0,1.00E-04,2.00E-04,33.806,-27.61,-16.17,-27.02,102.51,-19.28,0.44,2,1015.14,26.574,30.453508,-84.31867,70.19,NaN,,0,82.99355,,0 / 20,22607,2018-04-20 21:37:08:759,,,
1.92,3.1022,9.2264,-0.0135,3.2363,9.2608,-2.0046,0.1113,0.1404,2.00E-04,-6.00E-04,1.00E-04,33.806,-27.84,-15.72,-25.58,103.14,-19.27,0.19,2,1015.14,44.279,30.453508,-84.31867,70.19,NaN,,0,82.99355,,0 / 20,22706,2018-04-20 21:37:08:858,,,
1.9331,3.0914,9.2348,0.0032,3.2354,9.2611,-1.9698,0.1107,0.1254,-4.00E-04,0,-2.00E-04,33.806,-28.11,-15.59,-26.56,102.48,-19.26,-0.02,2,1015.14,44.279,30.453508,-84.31867,70.19,NaN,,0,82.99355,,0 / 20,22807,2018-04-20 21:37:08:959,,,
1.9223,3.0926,9.2408,0.0412,3.233,9.2619,-1.9458,0.1183,0.132,-3.00E-04,1.00E-04,3.00E-04,33.806,-28.53,-15.77,-26.67,102.05,-19.24,-0.26,2,1015.14,44.279,30.453508,-84.31867,70.19,NaN,,0,82.99355,,0 / 20,22907,2018-04-20 21:37:09:059,,,
1.9343,3.0817,9.2432,0.073,3.2312,9.2623,-1.9152,0.1033,0.1384,-3.00E-04,4.00E-04,-2.00E-04,33.806,-27.7,-15.84,-24.97,103.75,-19.24,-0.35,2,1015.14,45.504,30.453508,-84.31867,70.19,NaN,,0,82.99355,,0 / 20,23006,2018-04-20 21:37:09:158,,,
1.9247,3.0938,9.2396,0.0943,3.2297,9.2626,-1.8933,0.1021,0.1387,-6.00E-04,0,1.00E-04,33.806,-28.07,-15.6,-25.99,103.1,-19.22,-0.58,2,1015.14,45.504,30.453508,-84.31867,70.19,NaN,,0,82.99355,,0 / 20,23107,2018-04-20 21:37:09:259,,,
1.9283,3.0974,9.2384,0.1255,3.228,9.2629,-1.8645,0.1016,0.1437,2.00E-04,3.00E-04,0,33.806,-27.94,-15.41,-25.58,101.22,-19.21,-0.78,2,1015.14,45.504,30.453508,-84.31867,70.19,NaN,,0,82.99355,,0 / 20,23207,2018-04-20 21:37:09:359,,,
1.9247,3.101,9.2408,0.1408,3.2272,9.2629,-1.8232,0.0928,0.139,-2.00E-04,2.00E-04,1.00E-04,33.806,-27.02,-15.76,-25.88,103.57,-19.21,-0.87,2,1015.14,45.504,30.453508,-84.31867,70.19,NaN,,0,82.99355,,0 / 20,23307,2018-04-20 21:37:09:459,,,
1.9152,3.095,9.23,0.1768,3.2256,9.2629,-1.8197,0.0945,0.1521,0,-4.00E-04,1.00E-04,33.806,-28.38,-15.34,-25.33,101.85,-19.2,-1,2,1015.14,27.497,30.453508,-84.31867,70.19,NaN,,0,82.99355,,0 / 20,23407,2018-04-20 21:37:09:559,,,
1.9343,3.089,9.2348,0.1924,3.2246,9.2629,-1.7744,0.0831,0.1401,-5.00E-04,1.00E-04,1.00E-04,33.806,-27.55,-15.63,-25.58,103.07,-19.19,-1.19,2,1015.14,27.497,30.453508,-84.31867,70.19,NaN,,0,82.99355,,0 / 20,23507,2018-04-20 21:37:09:659,,,
1.9212,3.0974,9.23,0.227,3.2221,9.263,-1.7555,0.1061,0.1378,-0.0011,1.00E-04,3.00E-04,33.806,-28.22,-16.82,-25.98,104.93,-19.17,-1.4,2,1015.14,27.497,30.453508,-84.31867,70.19,NaN,,0,82.99355,,0 / 20,23607,2018-04-20 21:37:09:759,,,
1.9295,3.0829,9.2384,0.2564,3.2199,9.263,-1.7228,0.0908,0.1366,-7.00E-04,1.00E-04,2.00E-04,33.806,-28.45,-16.26,-25.05,103.71,-19.17,-1.5,2,1015.14,38.988,30.453508,-84.31867,70.19,NaN,,0,82.99355,,0 / 20,23707,2018-04-20 21:37:09:859,,,
1.9235,3.0974,9.2432,0.2707,3.2189,9.2629,-1.699,0.0898,0.1317,-4.00E-04,3.00E-04,3.00E-04,33.806,-28.17,-15.91,-25.03,103.7,-19.15,-1.67,2,1015.14,38.988,30.453508,-84.31867,70.19,NaN,,0,82.99355,,0 / 20,23807,2018-04-20 21:37:09:959,,,
1.9188,3.0998,9.2348,0.3037,3.2168,9.2626,-1.6743,0.0916,0.1435,-4.00E-04,4.00E-04,2.00E-04,33.806,-28.76,-15.37,-25.59,100.74,-19.14,-1.88,2,1015.14,38.988,30.453508,-84.31867,70.19,NaN,,0,82.99355,,0 / 20,23907,2018-04-20 21:37:10:059,,,
1.9212,3.0901,9.248,0.3177,3.216,9.2624,-1.6594,0.0852,0.1551,-1.00E-04,-6.00E-04,-2.00E-04,33.806,-27.49,-16.42,-24.73,104.22,-19.14,-1.96,2,1015.14,34.059,30.453508,-84.31867,70.19,NaN,,0,82.99355,,0 / 20,24007,2018-04-20 21:37:10:159,,,
1.9331,3.0974,9.2204,0.35,3.2144,9.2618,-1.6337,0.0882,0.138,0,7.00E-04,2.00E-04,33.806,-28.13,-15.82,-25.13,103.69,-19.13,-2.05,2,1015.14,34.059,30.453508,-84.31867,70.19,NaN,,0,82.99355,,0 / 20,24107,2018-04-20 21:37:10:259,,,
1.9343,3.0877,9.2336,0.3769,3.2132,9.2612,-1.6175,0.0882,0.1385,1.00E-04,5.00E-04,0,33.806,-28.6,-15.68,-25.75,102.57,-19.12,-2.25,2,1015.14,34.059,30.453508,-84.31867,70.19,NaN,,0,82.99355,,0 / 20,24206,2018-04-20 21:37:10:358,,,
1.9235,3.0938,9.2456,0.3905,3.2126,9.2608,-1.5894,0.0905,0.1451,2.00E-04,-5.00E-04,-3.00E-04,33.806,-27.89,-15.93,-24.98,103.68,-19.12,-2.41,2,1015.14,26.696,30.453508,-84.31867,70.19,NaN,,0,82.99355,,0 / 20,24307,2018-04-20 21:37:10:459,,,
1.9295,3.1022,9.2312,0.4211,3.211,9.26,-1.5573,0.0711,0.13,-3.00E-04,2.00E-04,-1.00E-04,33.806,-28.31,-15.91,-25.34,103.67,-19.11,-2.52,2,1015.14,26.696,30.453508,-84.31867,70.19,NaN,,0,82.99355,,0 / 20,24407,2018-04-20 21:37:10:559,,,
1.9247,3.107,9.2432,0.4341,3.2101,9.2597,-1.5525,0.0775,0.1501,-2.00E-04,3.00E-04,2.00E-04,33.806,-28.27,-15.92,-24.63,103.67,-19.1,-2.68,2,1015.14,26.696,30.453508,-84.31867,70.19,NaN,,0,82.99355,,0 / 20,24506,2018-04-20 21:37:10:658,,,
1.9295,3.0889,9.2276,0.4646,3.2082,9.2589,-1.5242,0.0842,0.1266,-2.00E-04,-5.00E-04,3.00E-04,33.806,-28.35,-16.27,-25.05,103.67,-19.09,-2.87,2,1015.14,26.696,30.453508,-84.31867,70.19,NaN,,0,82.99355,,0 / 20,24607,2018-04-20 21:37:10:759,,,
1.9235,3.0901,9.2396,0.4898,3.2068,9.2581,-1.5035,0.0792,0.1437,-2.00E-04,4.00E-04,-1.00E-04,33.806,-27.29,-16.21,-25.53,103.55,-19.08,-2.95,2,1015.14,36.306,30.453508,-84.31867,70.19,NaN,,0,82.99355,,0 / 20,24707,2018-04-20 21:37:10:859,,,
1.9271,3.0889,9.236,0.5023,3.2058,9.2578,-1.4826,0.0843,0.135,-6.00E-04,1.00E-04,0,33.806,-27.83,-16.03,-25.29,103.66,-19.08,-3.03,2,1015.14,36.306,30.453508,-84.31867,70.19,NaN,,0,82.99355,,0 / 20,24807,2018-04-20 21:37:10:959,,,
1.9271,3.0938,9.242,0.531,3.2038,9.2569,-1.4581,0.0846,0.1343,-1.00E-04,1.00E-04,2.00E-04,33.806,-28.02,-16.29,-24.43,104.3,-19.07,-3.21,2,1015.14,36.306,30.453508,-84.31867,70.19,NaN,,0,82.99355,,0 / 20,24906,2018-04-20 21:37:11:058,,,
1.92,3.0974,9.242,0.5431,3.2031,9.2564,-1.4437,0.0774,0.1357,0,-1.00E-04,0,33.806,-28.22,-16.02,-24.98,103.66,-19.06,-3.36,2,1015.14,28.853,30.453508,-84.31867,70.19,NaN,,0,82.99355,,0 / 20,25007,2018-04-20 21:37:11:159,,,
1.9331,3.101,9.2396,0.5709,3.2013,9.2554,-1.4094,0.0735,0.1361,-2.00E-04,1.00E-04,-3.00E-04,33.806,-28.31,-14.79,-24.91,101.71,-19.05,-3.43,2,1015.14,28.853,30.453508,-84.31867,70.19,NaN,,0,82.99355,,0 / 20,25107,2018-04-20 21:37:11:259,,,
1.9212,3.0926,9.2276,0.5945,3.2003,9.2542,-1.3974,0.0705,0.1439,1.00E-04,-2.00E-04,3.00E-04,33.806,-27.59,-16.15,-25.38,103.66,-19.04,-3.6,2,1015.14,28.853,30.453508,-84.31867,70.19,NaN,,0,82.99355,,0 / 20,25207,2018-04-20 21:37:11:359,,,
1.9367,3.0877,9.242,0.6063,3.1995,9.2537,-1.3798,0.0693,0.1488,-1.00E-04,-2.00E-04,2.00E-04,33.806,-27.49,-15.24,-24.65,102.19,-19.04,-3.75,2,1015.14,25.399,30.453508,-84.31867,70.19,NaN,,0,82.99355,,0 / 20,25307,2018-04-20 21:37:11:459,,,
1.9212,3.0914,9.2348,0.6331,3.1978,9.2525,-1.3522,0.075,0.1382,-4.00E-04,-5.00E-04,-4.00E-04,33.806,-28.37,-15.64,-25.39,103.66,-19.02,-3.91,2,1015.15,25.399,30.453508,-84.31867,70.19,NaN,,0,82.99355,,0 / 20,25407,2018-04-20 21:37:11:559,,,
1.9271,3.0889,9.2324,0.6442,3.1971,9.252,-1.3397,0.0754,0.1341,-3.00E-04,-1.00E-04,-2.00E-04,33.806,-28.3,-16.27,-25.14,103.66,-19.02,-3.98,2,1015.16,25.399,30.453508,-84.31867,70.19,NaN,,0,82.99355,,0 / 20,25507,2018-04-20 21:37:11:659,,,
1.9247,3.0853,9.2396,0.67,3.1957,9.2507,-1.3129,0.079,0.1353,-2.00E-04,2.00E-04,-1.00E-04,33.806,-28.29,-15.45,-24.82,101.68,-19.02,-4.05,0,1015.16,25.399,30.453508,-84.31867,70.19,NaN,,0,82.99355,,0 / 20,25607,2018-04-20 21:37:11:759,,,
1.9295,3.0817,9.2288,0.6806,3.195,9.2501,-1.291,0.0634,0.1353,2.00E-04,-2.00E-04,2.00E-04,33.806,-27.83,-16.35,-24.83,103.65,-19.01,-4.21,0,1015.15,26.734,30.453508,-84.31867,70.19,NaN,,0,82.99355,,0 / 20,25707,2018-04-20 21:37:11:859,,,
1.9402,3.0998,9.2156,0.7027,3.1943,9.2487,-1.2742,0.0565,0.1376,3.00E-04,-3.00E-04,-3.00E-04,33.806,-27.57,-15.23,-25.21,101.67,-19,-4.28,0,1015.15,26.734,30.453508,-84.31867,70.19,NaN,,0,82.99355,,0 / 20,25807,2018-04-20 21:37:11:959,,,
1.9247,3.1046,9.2156,0.7252,3.195,9.2467,-1.2542,0.0962,0.1189,0.0029,0.0014,-5.00E-04,33.806,-28.34,-15.51,-24.46,104.28,-19,-4.42,0,1015.15,26.734,30.453508,-84.31867,70.19,NaN,,0,82.99355,,0 / 20,25907,2018-04-20 21:37:12:059,,,
1.9355,3.1215,9.1928,0.7009,3.2043,9.2454,-1.3373,-0.1357,-0.4341,0.0163,0.0587,-0.0134,33.806,-28.4,-16.21,-24.89,103.58,-19.06,-4.34,0,1015.15,30.317,30.453508,-84.31867,70.19,NaN,,0,82.99355,,0 / 20,26007,2018-04-20 21:37:12:159,,,
1.9999,3.0901,9.4591,0.7636,3.222,9.2343,-1.197,0.074,0.1856,0.0262,-0.0465,0.0125,33.806,-27.62,-15.43,-25.01,101.43,-19.17,-4.73,0,1015.15,30.317,30.453508,-84.31867,70.19,NaN,,0,82.99355,,0 / 20,26107,2018-04-20 21:37:12:259,,,
1.8961,3.1708,9.3919,0.7244,3.242,9.2304,-1.5216,0.0065,-0.1354,0.0361,0.0685,-0.0105,30.637,-28.46,-15.69,-25.39,103.31,-19.3,-4.49,0,1015.15,30.317,30.453508,-84.31867,70.19,NaN,,0,82.99355,,0 / 20,26207,2018-04-20 21:37:12:359,,,
1.9653,3.1612,9.0225,0.7029,3.1973,9.2477,-1.4416,-0.1422,-0.8798,-0.0819,0.0617,0.0531,30.637,-27.87,-16.08,-25.59,102.51,-19.43,-4.46,0,1015.16,42.242,30.453508,-84.31867,70.19,NaN,,0,82.99355,,0 / 20,26307,2018-04-20 21:37:12:459,,,
2.3282,3.7295,10.1776,0.8242,2.4226,9.4704,0.1025,0.5444,-0.5733,-0.8815,-0.0296,0.3725,30.637,-28.22,-14.21,-26.22,100.28,-17.87,-4.57,0,1015.16,42.242,30.453508,-84.31867,70.19,NaN,,0,82.99355,,0 / 20,26407,2018-04-20 21:37:12:559,,,
1.7302,3.0215,11.0316,0.9772,1.6444,9.6217,-3.0194,-0.1469,-2.6124,-1.308,-0.1923,0.1884,30.637,-29.46,-10.17,-28.75,99.92,-9.65,-5.8,2,1015.15,42.242,30.453508,-84.31867,70.19,NaN,,0,82.99355,,0 / 20,26507,2018-04-20 21:37:12:659,,,
2.8893,1.1975,9.3212,0.7565,0.6072,9.7619,-2.7046,-0.9884,0.6453,-0.8896,-0.0504,-0.0318,30.637,-27.93,-8.12,-30.87,98.94,-6.79,-3.87,2,1015.13,40.598,30.453508,-84.31867,70.19,NaN,,0,82.99355,,0 / 20,26607,2018-04-20 21:37:12:759,,,
0.8349,0.061,11.3854,0.8228,-0.2653,9.7718,-1.8557,-0.882,-1.7889,-1.2603,-0.1306,0.4561,30.637,-28.77,-4.49,-31.31,100.55,1.55,-4.81,2,1015.13,40.598,30.453508,-84.31867,70.19,NaN,,0,82.99355,,0 / 20,26707,2018-04-20 21:37:12:859,,,
1.6191,-2.654,11.9408,0.4412,-1.3822,9.7021,-0.9686,0.0582,-0.6393,-0.2691,0.349,0.7859,30.637,-29.39,3.19,-33.94,94.17,8.1,-2.6,2,1015.13,40.598,30.453508,-84.31867,70.19,NaN,,0,82.99355,,0 / 20,26807,2018-04-20 21:37:12:959,,,
2.2518,-1.8028,10.8469,0.2252,-1.5289,9.6875,-2.4487,0.1191,-0.5796,0.0044,-0.3698,1.583,78.176,-29.3,5.41,-35.06,91.26,8.97,-1.33,2,1015.13,33.195,30.453508,-84.31867,70.19,NaN,,0,82.99355,,0 / 20,26907,2018-04-20 21:37:13:059,,,
3.0982,-1.934,9.8717,0.6301,-1.8498,9.6134,-2.3539,0.1391,0.0568,-0.3563,-0.7319,1.5856,78.176,-31.11,10.98,-32.56,79.76,9.24,-1.99,2,1015.13,33.195,30.453508,-84.31867,70.19,NaN,,0,82.99355,,0 / 20,27007,2018-04-20 21:37:13:159,,,
1.6514,-2.2145,9.4267,0.4981,-1.9529,9.6007,-3.4237,0.5564,0.7853,0.3655,-0.2401,1.5201,78.176,-32.88,17.67,-32.39,71.99,12.69,-3.08,2,1015.12,33.195,30.453508,-84.31867,70.19,NaN,,0,82.99355,,0 / 20,27106,2018-04-20 21:37:13:258,,,
3.861,-2.6672,8.9026,0.4536,-1.8397,9.6253,-0.3224,0.1729,1.0044,0.2359,-0.0859,0.6736,78.176,-31.61,19.6,-32.27,66.3,10.81,-2.7,2,1015.1,33.195,30.453508,-84.31867,70.19,NaN,,0,82.99355,,0 / 20,27206,2018-04-20 21:37:13:358,,,
0.5436,-2.1712,8.2585,0.0755,-0.5263,9.7956,-0.3428,1.2656,2.6031,1.3004,-0.0286,1.6836,78.176,-30.52,19.81,-32.8,63.18,7.55,-0.82,2,1015.09,25.675,30.453508,-84.31867,70.19,NaN,,0,82.99355,,0 / 20,27307,2018-04-20 21:37:13:459,,,
1.4723,-0.0474,6.5193,0.0833,-0.1732,9.8081,1.0827,0.8706,2.3478,0.5583,0.1163,0.4775,78.176,-29.62,18.85,-33.22,58.22,1.01,-0.49,2,1015.09,25.675,30.453508,-84.31867,70.19,NaN,,0,82.99355,,0 / 20,27407,2018-04-20 21:37:13:559,,,
0.5555,-0.1738,7.095,-0.233,0.1437,9.8062,-1.0779,0.6297,2.4755,0.0372,0.3849,0.2961,78.176,-28.38,19.31,-34.46,55.92,-0.84,1.36,2,1015.09,25.675,30.453508,-84.31867,70.19,NaN,,0,82.99355,,0 / 20,27507,2018-04-20 21:37:13:659,,,
0.7835,-0.5338,7.444,-0.3896,0.4833,9.7903,0.9167,1.4203,1.2113,0.659,0.2268,-0.4293,97.192,-27.74,18.98,-34.71,56.26,-0.45,1.41,2,1015.09,32.886,30.453508,-84.31867,70.19,NaN,,0,82.99355,,0 / 20,27607,2018-04-20 21:37:13:759,,,
-0.5487,-0.0943,8.8366,-0.3624,0.5248,9.7892,-1.1204,0.0737,0.2349,0.1281,-0.0277,0.2372,97.192,-27.56,16.78,-35.48,57.3,-3.07,2.12,2,1015.09,32.886,30.453508,-84.31867,70.19,NaN,,0,82.99355,,0 / 20,27707,2018-04-20 21:37:13:859,,,
0.5245,-0.4447,9.6834,-0.6369,0.969,9.7412,0.0343,1.0118,-0.0989,0.7557,0.2442,-0.0465,97.192,-27.06,16.51,-35.78,57.17,-2.64,2.9,2,1015.11,32.886,30.453508,-84.31867,70.19,NaN,,0,82.99355,,0 / 20,27807,2018-04-20 21:37:13:959,,,
0.8468,0.5426,9.6174,-0.1792,2.1248,9.5755,-0.4913,0.0435,0.4904,1.8596,-0.6071,0.3976,97.192,-27.86,9.33,-35.66,60.12,-12.51,1.07,2,1015.11,26.417,30.453508,-84.31867,70.19,NaN,,0,82.99355,,0 / 20,27907,2018-04-20 21:37:14:059,,,
0.4839,2.552,9.0741,0.0575,2.3348,9.5279,0.451,0.5988,-0.9225,-0.5943,-0.0575,-0.5433,97.192,-29.48,7.88,-35.52,58.27,-16.02,-0.58,2,1015.1,26.417,30.453508,-84.31867,70.19,NaN,,0,82.99355,,0 / 20,28007,2018-04-20 21:37:14:159,,,
0.2714,1.2673,9.675,1.5202,3.7687,8.9287,0.3656,0.1686,0.1518,1.9382,-1.9074,-0.5755,97.192,-31.95,4.99,-32.87,64.94,-15.41,-3.26,2,1015.1,26.417,30.453508,-84.31867,70.19,NaN,,0,82.99355,,0 / 20,28107,2018-04-20 21:37:14:259,,,
1.2527,2.6953,10.2795,1.3482,3.9821,8.8635,-0.0557,1.404,0.1864,0.6988,0.734,1.1967,97.192,-34.77,1.36,-29.85,63.37,-23.95,-8.65,2,1015.1,26.417,30.453508,-84.31867,70.19,NaN,,0,82.99355,,0 / 20,28207,2018-04-20 21:37:14:359,,,
1.3219,3.0023,9.735,1.6477,3.4139,9.048,-0.9803,0.4574,-1.39,-0.4024,0.0727,0.9896,66.556,-34.21,2.21,-30.84,60.94,-22.32,-9.87,2,1015.09,30.105,30.453508,-84.31867,70.19,NaN,,0,82.99355,,0 / 20,28307,2018-04-20 21:37:14:459,,,
2.5717,2.9216,10.5518,1.0736,3.4172,9.1327,-1.4516,0.8383,0.5311,0.2274,1.5641,1.3784,66.556,-32.67,7.53,-32.21,55.56,-20.39,-6.7,2,1015.09,30.105,30.453508,-84.31867,70.19,NaN,,0,82.99355,,0 / 20,28406,2018-04-20 21:37:14:558,,,
1.6621,1.4227,9.6978,0.7313,3.336,9.1963,-1.1296,1.5469,0.703,0.181,0.808,1.0343,66.556,-29.05,11.42,-34.25,48.15,-19.48,-5.99,2,1015.08,30.105,30.453508,-84.31867,70.19,NaN,,0,82.99355,,0 / 20,28506,2018-04-20 21:37:14:658,,,
1.9498,2.3196,9.0777,0.7951,3.6391,9.0753,0.6783,0.9318,0.2385,-0.0842,0.3205,0.2662,66.556,-28.43,10.43,-35.59,46.49,-21.77,-5.01,2,1015.07,26.89,30.453508,-84.31867,70.19,NaN,,0,82.99355,,0 / 20,28606,2018-04-20 21:37:14:758,,,
1.3947,1.9608,10.0108,0.8277,3.2144,9.2314,-0.7675,-0.6151,-0.9259,-0.4629,0.0695,0.857,66.556,-27.84,12.17,-37.78,44.43,-21,-4.34,2,1015.07,26.89,30.453508,-84.31867,70.19,NaN,,0,82.99355,,0 / 20,28707,2018-04-20 21:37:14:859,,,
1.5189,3.7547,10.2867,0.2836,3.551,9.1404,-1.1212,0.8004,-0.0294,0.5056,0.8221,0.2622,66.556,-26.84,14.83,-36.99,41.42,-19.59,-4.52,2,1015.07,26.89,30.453508,-84.31867,70.19,NaN,,0,82.99355,,0 / 20,28807,2018-04-20 21:37:14:959,,,
-0.6334,2.5977,7.8135,0.0956,3.2653,9.2501,0.1058,1.1952,0.7527,-0.3738,0.4332,-0.0249,66.556,-23,15.72,-37.87,39.1,-19.44,-0.59,2,1015.06,27.265,30.453508,-84.31867,70.19,NaN,,0,82.99355,,20-Aug,28906,2018-04-20 21:37:15:058,,,
1.0354,1.1373,10.3383,0.5491,1.9353,9.6015,0.1164,0.2509,-2.2298,-0.7314,0.1667,0.3754,66.556,-24.76,22.04,-37.03,38.1,-11.38,-3.27,2,1015.06,27.265,30.453508,-84.31867,70.19,NaN,,0,82.99355,,20-Aug,29007,2018-04-20 21:37:15:159,,,
0.0159,1.6719,12.207,0.3101,2.1784,9.5601,0.0306,0.8722,-0.5744,0.6944,0.1894,-0.3563,66.556,-23.49,21.1,-36.78,37.06,-12.83,-1.86,2,1015.07,27.265,30.453508,-84.31867,70.19,NaN,,0,82.99355,,20-Aug,29107,2018-04-20 21:37:15:259,,,
0.0506,0.9435,8.5379,0.4613,2.6622,9.4306,0.2731,1.0894,0.2505,0.1924,-0.4042,0.1459,66.556,-23.61,18.1,-38.02,38.36,-15.75,-2.8,2,1015.06,42.511,30.453508,-84.31867,70.19,NaN,,0,82.99355,,20-Aug,29207,2018-04-20 21:37:15:359,,,
0.3669,1.6358,9.5599,1.0013,2.9668,9.2969,-0.4653,0.4569,0.0359,0.2714,0.1255,0.2372,66.556,-25.87,17.57,-35.43,37.63,-16.91,-6.68,2,1015.06,42.511,30.453508,-84.31867,70.19,NaN,,0,82.99355,,20-Aug,29307,2018-04-20 21:37:15:459,,,
1.5869,2.2787,9.1376,0.7055,2.7823,9.3807,-0.1412,0.6699,-0.39,-0.2878,0.5411,0.0433,66.556,-25.81,17.94,-36.95,36.93,-17.6,-6.15,2,1015.06,42.511,30.453508,-84.31867,70.19,NaN,,0,82.99355,,20-Aug,29406,2018-04-20 21:37:15:558,,,
0.7656,2.0824,9.8849,0.5799,2.9279,9.3449,-0.1451,0.9578,-0.1078,0.1693,0.1626,0.0177,66.556,-24.53,18.4,-37.53,37.68,-16.88,-4.12,2,1015.07,46.467,30.453508,-84.31867,70.19,NaN,,0,82.99355,,20-Aug,29506,2018-04-20 21:37:15:658,,,
0.2905,2.1776,9.5023,0.4064,2.8268,9.3851,-0.392,0.6519,0.0296,-0.1507,0.2992,0.0142,66.556,-23.13,17.87,-37.62,36.85,-16.75,-2.48,2,1015.07,46.467,30.453508,-84.31867,70.19,NaN,,0,82.99355,,20-Aug,29607,2018-04-20 21:37:15:759,,,
0.6916,2.0451,9.4387,0.3828,2.6004,9.4513,-0.6542,1.0543,-0.3366,-0.161,-0.1003,-0.0083,66.556,-23.39,19.56,-36.66,36.22,-15.37,-2.32,2,1015.06,46.467,30.453508,-84.31867,70.19,NaN,,0,82.99355,,20-Aug,29707,2018-04-20 21:37:15:859,,,
0.8886,1.8573,10.0792,0.3486,2.8099,9.3925,-0.267,0.9295,-0.4968,0.1419,0.1692,0.0685,70.781,-23.35,18.43,-36.79,37.3,-16.23,-2.66,2,1015.06,46.467,30.453508,-84.31867,70.19,NaN,,0,82.99355,,20-Aug,29807,2018-04-20 21:37:15:959,,,
0.3096,1.9849,9.6006,0.3243,2.8978,9.3666,-0.2789,0.7096,-0.2807,0.1602,0.0588,0.0516,70.781,-22.18,18.02,-37.19,36.15,-17.18,-1.98,2,1015.06,27.772,30.453508,-84.31867,70.19,NaN,,0,82.99355,,20-Aug,29907,2018-04-20 21:37:16:059,,,
0.6689,2.3533,9.9341,0.2001,2.9988,9.3383,-0.02,0.6893,-0.1415,0.0626,0.0873,-0.017,70.781,-21.71,16.82,-37.36,37.49,-17.8,-1.23,2,1015.07,27.772,30.453508,-84.31867,70.19,NaN,,0,82.99355,,20-Aug,30007,2018-04-20 21:37:16:159,,,
0.1246,2.3341,9.6882,0.148,3.0156,9.3338,0.0974,0.7001,-0.0159,0.0391,0.0941,0.0234,70.781,-21.91,17.36,-38.17,37.16,-17.8,-1.23,2,1015.07,27.772,30.453508,-84.31867,70.19,NaN,,0,82.99355,,20-Aug,30107,2018-04-20 21:37:16:259,,,
-0.0569,2.2823,9.4171,0.1501,3.0218,9.3318,-0.0108,0.7704,-0.4747,-0.0019,0.0362,0.0169,70.781,-21.71,17.25,-38.12,37.27,-17.97,-1.03,2,1015.07,45.087,30.453508,-84.31867,70.19,NaN,,0,82.99355,,20-Aug,30207,2018-04-20 21:37:16:359,,,
0.3395,2.3232,9.5886,0.1829,3.0942,9.3074,-0.202,0.7344,-0.3092,0.1337,-0.0876,0.0413,70.781,-20.92,17.51,-37.89,34.75,-18.39,-1.13,2,1015.07,45.087,30.453508,-84.31867,70.19,NaN,,0,82.99355,,20-Aug,30307,2018-04-20 21:37:16:459,,,
0.4481,2.4015,9.6966,0.2615,3.2055,9.2678,-0.1332,0.6674,-0.1457,0.0898,-0.0201,0.0223,70.781,-21.74,16.63,-38.13,36.11,-19.07,-1.62,2,1015.06,45.087,30.453508,-84.31867,70.19,NaN,,0,82.99355,,20-Aug,30407,2018-04-20 21:37:16:559,,,
0.3144,2.434,9.6762,0.2798,3.2133,9.2646,-0.0972,0.6681,-0.4741,0.0367,-0.022,0.006,70.781,-21.99,15.78,-38.36,37.07,-19,-1.61,2,1015.06,39.943,30.453508,-84.31867,70.19,NaN,,0,82.99355,,20-Aug,30506,2018-04-20 21:37:16:658,,,
0.3645,2.4942,9.5406,0.2761,3.185,9.2744,-0.0604,0.648,-0.1691,-0.0339,-9.00E-04,-0.0095,70.781,-22.48,16.21,-38.36,37,-18.95,-1.71,2,1015.06,39.943,30.453508,-84.31867,70.19,NaN,,0,82.99355,,20-Aug,30606,2018-04-20 21:37:16:758,,,
0.3753,2.5098,9.7398,0.2819,3.1531,9.2852,-0.055,0.678,-0.2201,-0.028,0.0212,-0.0064,70.781,-22.73,16.22,-37.9,38.37,-18.75,-1.74,2,1015.06,39.943,30.453508,-84.31867,70.19,NaN,,0,82.99355,,20-Aug,30706,2018-04-20 21:37:16:858,,,
0.275,2.4484,9.5586,0.3089,3.1321,9.2914,-0.022,0.606,-0.239,-0.0197,-0.05,-0.0095,70.781,-22.11,16.45,-38.4,37.08,-18.75,-1.74,2,1015.06,39.943,30.453508,-84.31867,70.19,NaN,,0,82.99355,,20-Aug,30807,2018-04-20 21:37:16:959,,,
0.3645,2.5315,9.8237,0.2844,3.1338,9.2916,-0.096,0.6248,-0.205,0.0311,0.002,0.0126,70.781,-22.55,16.25,-37.34,38.82,-18.58,-1.75,2,1015.06,24.754,30.453508,-84.31867,70.19,NaN,,0,82.99355,,20-Aug,30907,2018-04-20 21:37:17:059,,,
0.2905,2.4292,9.5586,0.3052,3.1384,9.2894,-0.0988,0.6692,0.1696,0.0135,-0.0215,0.0066,70.781,-22.45,16.25,-37.69,37.05,-18.68,-1.8,2,1015.06,24.754,30.453508,-84.31867,70.19,NaN,,0,82.99355,,20-Aug,31007,2018-04-20 21:37:17:159,,,
0.3347,2.4629,9.2852,0.2807,3.0648,9.3148,-0.0107,0.5932,-0.3788,-0.1164,0.0446,0.0149,70.781,-20.97,16.33,-37.82,36.05,-18.2,-1.73,2,1015.06,24.754,30.453508,-84.31867,70.19,NaN,,0,82.99355,,20-Aug,31106,2018-04-20 21:37:17:258,,,
0.2308,2.4701,9.5611,0.3008,3.0124,9.3312,-0.1479,0.5354,-0.2944,-0.0332,-0.0202,0.03,70.781,-22.77,17.13,-37.22,38.15,-18.04,-1.74,2,1015.06,41.725,30.453508,-84.31867,70.19,NaN,,0,82.99355,,20-Aug,31206,2018-04-20 21:37:17:358,,,
0.3717,2.4858,9.639,0.3007,2.9786,9.342,-0.1088,0.5823,-0.2775,-0.0501,0.0052,0.0172,70.781,-22.49,16.47,-38.4,37.57,-17.68,-1.84,2,1015.06,41.725,30.453508,-84.31867,70.19,NaN,,0,82.99355,,20-Aug,31307,2018-04-20 21:37:17:459,,,Drop
0.3001,2.328,9.6294,0.3032,2.9636,9.3467,-0.0861,0.6067,-0.1639,0.0134,-0.0101,0.0025,70.781,-22.33,17.12,-38.13,36.65,-17.58,-1.86,2,1015.06,41.725,30.453508,-84.31867,70.19,NaN,,0,82.99355,,20-Aug,31407,2018-04-20 21:37:17:559,,,Drop
0.3633,2.3533,9.5263,0.3227,2.9559,9.3485,-0.0713,0.6453,-0.1641,-0.0092,-0.0125,4.00E-04,70.781,-22.14,16.85,-37.62,36.59,-17.6,-1.92,2,1015.06,40.645,30.453508,-84.31867,70.19,NaN,,0,82.99355,,20-Aug,31506,2018-04-20 21:37:17:658,,,Drop
0.3693,2.3268,9.7014,0.333,2.95,9.35,-0.0848,0.6038,-0.1885,-0.0024,-0.0162,0.0023,70.781,-22.45,16.51,-37.84,36.56,-17.54,-1.98,2,1015.06,40.645,30.453508,-84.31867,70.19,NaN,,0,82.99355,,20-Aug,31607,2018-04-20 21:37:17:759,,,Drop
0.3801,2.2787,9.5946,0.3627,2.9363,9.3532,-0.0538,0.6072,-0.0523,5.00E-04,-0.0209,0.0074,70.781,-22.42,16.97,-38.03,36.45,-17.45,-2.13,2,1015.07,40.645,30.453508,-84.31867,70.19,NaN,,0,82.99355,,20-Aug,31707,2018-04-20 21:37:17:859,,,Drop
0.355,2.2835,9.6294,0.3593,2.9008,9.3644,-0.0571,0.5287,-0.2169,-0.0522,0.0055,8.00E-04,70.781,-22.25,17.27,-37.67,36.52,-17.2,-2.2,2,1015.06,33.656,30.453508,-84.31867,70.19,NaN,,0,82.99355,,20-Aug,31807,2018-04-20 21:37:17:959,,,Drop
0.3466,2.3401,9.7074,0.3596,2.8532,9.379,-0.0607,0.5095,-0.2336,-0.027,-1.00E-04,-0.0065,70.781,-21.95,17.15,-37.97,36.6,-17.04,-2.2,2,1015.06,33.656,30.453508,-84.31867,70.19,NaN,,0,82.99355,,20-Aug,31907,2018-04-20 21:37:18:059,,,Drop
0.3311,2.2955,9.6918,0.3553,2.8435,9.3821,-0.0273,0.5754,-0.2132,0.0134,0.0075,0.0132,70.781,-22.85,17.74,-36.75,37.43,-16.85,-2.17,2,1015.06,33.656,30.453508,-84.31867,70.19,NaN,,0,82.99355,,20-Aug,32007,2018-04-20 21:37:18:159,,,Drop
0.3478,2.239,9.5347,0.3545,2.8345,9.3849,-0.0715,0.5385,-0.0817,-0.0116,0.0023,0.0113,70.781,-22.98,17.66,-37.41,37.47,-16.79,-2.16,2,1015.06,33.656,30.453508,-84.31867,70.19,NaN,,0,82.99355,,20-Aug,32107,2018-04-20 21:37:18:259,,,Drop
0.3514,2.2173,9.5851,0.3546,2.8175,9.39,-0.1257,0.4365,-0.4137,-0.0027,0.0127,0.0321,70.781,-22.18,17.11,-38.18,36.84,-16.69,-2.16,2,1015.06,27.719,30.453508,-84.31867,70.19,NaN,,0,82.99355,,20-Aug,32207,2018-04-20 21:37:18:359,,,Drop
0.4338,2.3329,9.729,0.3833,2.8508,9.3788,-0.1591,0.4825,-0.2296,0.0632,-0.0477,-0.0022,70.781,-23.01,17.62,-38.28,37.19,-16.69,-2.16,2,1015.06,27.719,30.453508,-84.31867,70.19,NaN,,0,82.99355,,20-Aug,32307,2018-04-20 21:37:18:459,,,Drop
0.4266,2.2558,9.4471,0.4165,2.8569,9.3755,-0.0746,0.6281,-0.0247,-0.0114,-0.0319,0.0241,70.781,-22.27,16.6,-37.88,36.41,-17.03,-2.4,2,1015.06,27.719,30.453508,-84.31867,70.19,NaN,,0,82.99355,,20-Aug,32407,2018-04-20 21:37:18:559,,,Drop
0.4278,2.2197,9.6786,0.409,2.8271,9.3849,0.033,0.5083,-0.075,-0.0444,0.0077,-0.0077,70.781,-22.53,17.23,-37.88,37.78,-16.75,-2.5,2,1015.06,28.099,30.453508,-84.31867,70.19,NaN,,0,82.99355,,20-Aug,32507,2018-04-20 21:37:18:659,,,Drop
0.3132,2.2534,9.627,0.3868,2.7893,9.3971,-0.0534,0.3967,-0.1498,1.00E-04,-0.0067,-0.0011,70.781,-22.53,18.24,-37.14,37.45,-16.53,-2.33,2,1015.06,28.099,30.453508,-84.31867,70.19,NaN,,0,82.99355,,20-Aug,32606,2018-04-20 21:37:18:758,,,Drop
0.4636,2.3473,9.8921,0.3685,2.767,9.4045,-0.1018,0.4165,-0.33,0.0179,0.0199,0.0053,70.781,-21.92,17.87,-38.15,35.96,-16.33,-2.3,2,1015.06,28.099,30.453508,-84.31867,70.19,NaN,,0,82.99355,,20-Aug,32706,2018-04-20 21:37:18:858,,,Drop
0.3705,2.263,9.6066,0.3602,2.7702,9.4039,-0.054,0.4758,-0.0847,0.0107,0.0154,0.0067,70.781,-22.84,17.91,-37.97,37.32,-16.4,-2.19,2,1015.06,25.874,30.453508,-84.31867,70.19,NaN,,0,82.99355,,20-Aug,32807,2018-04-20 21:37:18:959,,,Drop
0.3096,2.2739,9.6042,0.3307,2.7764,9.4031,-0.035,0.4072,0.0369,0.0225,0.0142,0.0094,70.781,-21.61,17.04,-38.17,37.13,-16.44,-2.01,2,1015.05,25.874,30.453508,-84.31867,70.19,NaN,,0,82.99355,,20-Aug,32907,2018-04-20 21:37:19:059,,,Drop
0.3048,2.3196,9.5766,0.3374,2.7552,9.4091,-0.0036,0.3975,-0.3195,-0.0292,-0.0095,0.0042,70.781,-21.54,17.54,-37.9,36.22,-16.31,-2.05,2,1015.05,25.874,30.453508,-84.31867,70.19,NaN,,0,82.99355,,20-Aug,33007,2018-04-20 21:37:19:159,,,Drop
0.2619,2.5279,9.5263,0.3761,2.8153,9.3898,-0.0023,0.1588,-0.0249,0.0607,-0.037,0.0382,70.781,-22.76,17.51,-38.74,37.03,-16.48,-2.12,2,1015.06,33.573,30.453508,-84.31867,70.19,NaN,,0,82.99355,,20-Aug,33107,2018-04-20 21:37:19:259,,,Drop
0.4135,2.5351,9.9017,0.314,2.9549,9.3491,-0.0179,0.1596,-0.2327,0.1211,0.0924,0.1329,70.781,-22.28,16.69,-37.07,37.01,-17.13,-2.09,2,1015.06,33.573,30.453508,-84.31867,70.19,NaN,,0,82.99355,,20-Aug,33206,2018-04-20 21:37:19:358,,,Drop
0.2834,2.7338,9.7038,0.3083,2.9775,9.3421,0.059,0.1928,0.875,0.0487,0.0348,0.0811,70.781,-21.36,16.77,-38.17,35.28,-17.53,-1.92,2,1015.06,33.573,30.453508,-84.31867,70.19,NaN,,0,82.99355,,20-Aug,33306,2018-04-20 21:37:19:458,,,Drop
-0.027,2.7338,7.985,0.1741,3.1304,9.2955,0.4817,-0.0346,3.8156,0.0854,0.2593,0.3017,70.781,-21.84,16.85,-38.69,36.16,-18.19,-1.69,2,1015.06,31.413,30.453508,-84.31867,70.19,NaN,,0,82.99355,,20-Aug,33406,2018-04-20 21:37:19:558,,,Drop
0.0351,-0.0245,0.1838,-0.2895,2.9908,9.3385,-0.4825,2.9437,9.2556,-0.2434,0.6734,-0.1239,70.781,-18.73,17.02,-39.6,35.65,-17.75,1.78,2,1015.04,31.413,30.453508,-84.31867,70.19,NaN,,0,82.99355,,20-Aug,33507,2018-04-20 21:37:19:659,,,Drop
0.0482,-0.0161,0.2618,-1.4901,2.6792,9.3187,-1.5796,2.659,9.1078,-0.232,0.9362,-0.2516,70.781,-14.03,18.5,-41.21,36.17,-15.85,9.08,2,1015.04,31.413,30.453508,-84.31867,70.19,NaN,,0,82.99355,,20-Aug,33607,2018-04-20 21:37:19:759,,,Drop
0.0315,-0.0125,0.3241,-2.0383,2.5072,9.2626,-2.5109,2.3271,8.8153,-0.2784,0.7248,-0.2724,70.781,-12.11,19,-40.15,36.26,-14.81,12.41,2,1015.04,31.413,30.453508,-84.31867,70.19,NaN,,0,82.99355,,20-Aug,33707,2018-04-20 21:37:19:859,,,Drop
0.0159,-0.0185,0.5568,0.869,-0.0906,9.771,-1.0977,4.0966,-22.2226,-3.1572,-4.6624,-0.7055,70.781,-11.3,21.82,-40.17,18.92,0.53,-5.08,2,1015.05,33.542,30.453508,-84.31867,70.19,NaN,,0,82.99355,,20-Aug,33807,2018-04-20 21:37:19:959,,,Drop
5.7566,-13.1345,136.1945,1.9386,-0.3479,9.6103,0.4821,-1.1065,8.8493,-0.679,-0.1729,0.7096,70.781,-28.26,30.24,-29.71,36.15,-0.53,-10.36,2,1015.02,33.542,30.453508,-84.31867,70.19,NaN,,0,82.99355,,20-Aug,33907,2018-04-20 21:37:20:059,,,Drop
0.5484,0.3042,1.7239,1.7648,-0.2257,9.6473,0.1599,0.5266,-0.8028,0.0778,0.0017,0.0434,70.781,-25.98,31.06,-30.77,33.53,1.32,-10.37,2,1015.02,33.542,30.453508,-84.31867,70.19,NaN,,0,82.99355,,20-Aug,34006,2018-04-20 21:37:20:158,,,Drop
1.0557,-0.5109,10.6429,1.4622,-0.0429,9.7003,-0.4646,0.7952,0.731,-0.0423,-0.1108,0.0156,100.362,-25.28,30.01,-31.04,34.08,0.15,-8.35,2,1015.06,59.462,30.453508,-84.31867,70.19,NaN,,0,82.99355,,20-Aug,34107,2018-04-20 21:37:20:259,,,Drop
1.5344,-0.3965,9.9881,1.4692,-0.0478,9.6992,-0.086,0.6403,0.0719,0.0029,-0.0058,-0.0013,100.362,-25.88,30.64,-30.52,34.34,0.28,-8.61,2,1015.06,59.462,30.453508,-84.31867,70.19,NaN,,0,82.99355,,20-Aug,34210,2018-04-20 21:37:20:362,,,Drop
1.4234,-0.6277,9.9161,1.4654,-0.0557,9.6998,-0.0358,0.5644,0.0432,-0.0025,0.0014,3.00E-04,100.362,-26.31,30.82,-30.68,34.38,0.33,-8.59,2,1015.08,59.462,30.453508,-84.31867,70.19,NaN,,0,82.99355,,20-Aug,34308,2018-04-20 21:37:20:460,,,Drop
1.4592,-0.6578,9.9041,1.4691,-0.0649,9.6992,-0.1303,0.4747,-0.0401,6.00E-04,-0.0017,2.00E-04,100.362,-26.43,30.27,-31.05,35.27,0.35,-8.6,2,1015.1,26.773,30.453508,-84.31867,70.19,NaN,,0,82.99355,,20-Aug,34407,2018-04-20 21:37:20:559,,,
1.4711,-0.5783,9.8273,1.4699,-0.0703,9.699,-0.0906,0.5223,-0.0018,-0.0016,0,4.00E-04,100.362,-26.89,31.16,-31.14,35.64,0.41,-8.62,2,1015.1,26.773,30.453508,-84.31867,70.19,NaN,,0,82.99355,,20-Aug,34506,2018-04-20 21:37:20:658,,,
1.4675,-0.5771,9.7973,1.4701,-0.0781,9.6989,-0.0794,0.4747,0.0172,9.00E-04,6.00E-04,-2.00E-04,100.362,-25.94,29.93,-30.69,35.31,0.43,-8.62,2,1015.1,26.773,30.453508,-84.31867,70.19,NaN,,0,82.99355,,20-Aug,34607,2018-04-20 21:37:20:759,,,
1.501,-0.6169,9.8285,1.4714,-0.0836,9.6987,-0.0884,0.4879,-0.0179,0,-8.00E-04,0,100.362,-26.07,30.44,-29.87,35.52,0.49,-8.63,2,1015.11,25.238,30.453508,-84.31867,70.19,NaN,,0,82.99355,,20-Aug,34707,2018-04-20 21:37:20:859,,,
1.5022,-0.6072,9.8297,1.4724,-0.0922,9.6984,-0.0772,0.4719,-0.0096,-1.00E-04,0,0,100.362,-25.62,30.23,-31.04,35.34,0.51,-8.63,2,1015.11,25.238,30.453508,-84.31867,70.19,NaN,,0,82.99355,,20-Aug,34807,2018-04-20 21:37:20:959,,,
1.4914,-0.6,9.8249,1.4731,-0.096,9.6983,-0.0759,0.4662,-0.0135,3.00E-04,4.00E-04,0,41.201,-25.9,30.19,-31.04,35.36,0.56,-8.64,2,1015.12,25.238,30.453508,-84.31867,70.19,NaN,,0,82.99355,,20-Aug,34908,2018-04-20 21:37:21:060,,,
1.489,-0.6121,9.8285,1.4748,-0.1058,9.6979,-0.0709,0.4639,0.003,-2.00E-04,0,-1.00E-04,41.201,-26.04,30.89,-29.7,34.68,0.62,-8.65,2,1015.14,25.238,30.453508,-84.31867,70.19,NaN,,0,82.99355,,20-Aug,35007,2018-04-20 21:37:21:159,,,
1.4819,-0.6048,9.8225,1.4759,-0.1139,9.6977,-0.0686,0.4581,-0.0092,-1.00E-04,-1.00E-04,-6.00E-04,41.201,-26.54,30.63,-31.09,35.74,0.64,-8.65,2,1015.14,24.27,30.453508,-84.31867,70.19,NaN,,0,82.99355,,20-Aug,35108,2018-04-20 21:37:21:260,,,
1.4866,-0.606,9.8201,1.4766,-0.1189,9.6975,-0.086,0.4532,-0.0082,2.00E-04,4.00E-04,-4.00E-04,41.201,-26.21,30.56,-30.68,34.53,0.69,-8.66,2,1015.14,24.27,30.453508,-84.31867,70.19,NaN,,0,82.99355,,20-Aug,35208,2018-04-20 21:37:21:360,,,
1.495,-0.606,9.8117,1.4773,-0.1265,9.6973,-0.0744,0.4553,-0.0024,4.00E-04,2.00E-04,-5.00E-04,41.201,-26.64,30.94,-30.99,35.78,0.72,-8.66,2,1015.14,24.27,30.453508,-84.31867,70.19,NaN,,0,82.99355,,20-Aug,35307,2018-04-20 21:37:21:459,,,
1.495,-0.6024,9.8153,1.4778,-0.1303,9.6972,-0.0734,0.4285,-0.0122,-1.00E-04,4.00E-04,-4.00E-04,41.201,-26.83,30.69,-30.49,35.97,0.76,-8.66,2,1015.14,23.291,30.453508,-84.31867,70.19,NaN,,0,82.99355,,20-Aug,35408,2018-04-20 21:37:21:560,,,
1.489,-0.6072,9.8225,1.4788,-0.139,9.6969,-0.0742,0.4381,-0.0088,-1.00E-04,3.00E-04,-1.00E-04,41.201,-26.95,29.93,-30.4,36.9,0.79,-8.67,2,1015.13,23.291,30.453508,-84.31867,70.19,NaN,,0,82.99355,,20-Aug,35508,2018-04-20 21:37:21:660,,,
1.4914,-0.6108,9.8165,1.48,-0.1461,9.6966,-0.0805,0.4319,-0.021,4.00E-04,0,-3.00E-04,41.201,-26.46,30.23,-31.97,35.31,0.83,-8.67,2,1015.13,23.291,30.453508,-84.31867,70.19,NaN,,0,82.99355,,20-Aug,35608,2018-04-20 21:37:21:760,,,
1.501,-0.5952,9.8213,1.4805,-0.1507,9.6965,-0.0631,0.424,4.00E-04,3.00E-04,3.00E-04,0,41.201,-26.23,30,-30.7,35.51,0.88,-8.68,2,1015.14,31.839,30.453508,-84.31867,70.19,NaN,,0,82.99355,,20-Aug,35708,2018-04-20 21:37:21:860,,,
1.4878,-0.6024,9.8189,1.4813,-0.1581,9.6962,-0.0537,0.4045,0.0037,-5.00E-04,7.00E-04,3.00E-04,41.201,-25.45,30.15,-29.45,34.59,0.9,-8.68,2,1015.14,31.839,30.453508,-84.31867,70.19,NaN,,0,82.99355,,20-Aug,35807,2018-04-20 21:37:21:959,,,
1.4962,-0.5988,9.8189,1.4816,-0.1618,9.6961,-0.0701,0.4044,-0.0108,-4.00E-04,4.00E-04,-3.00E-04,41.201,-25.74,31,-30.92,34.64,0.95,-8.69,2,1015.14,31.839,30.453508,-84.31867,70.19,NaN,,0,82.99355,,20-Aug,35907,2018-04-20 21:37:22:059,,,
1.4914,-0.6048,9.8201,1.4822,-0.1699,9.6959,-0.0708,0.4034,-0.011,-2.00E-04,7.00E-04,1.00E-04,41.201,-25.95,30.04,-30.59,35.56,0.99,-8.69,2,1015.14,41.093,30.453508,-84.31867,70.19,NaN,,0,82.99355,,20-Aug,36007,2018-04-20 21:37:22:159,,,
1.5057,-0.6109,9.8213,1.4832,-0.1766,9.6956,-0.0687,0.399,-0.0113,1.00E-04,-3.00E-04,4.00E-04,41.201,-26.25,30.3,-30.23,35.75,1.01,-8.69,2,1015.15,41.093,30.453508,-84.31867,70.19,NaN,,0,82.99355,,20-Aug,36107,2018-04-20 21:37:22:259,,,
1.495,-0.6012,9.8189,1.4835,-0.1811,9.6955,-0.0786,0.3819,-0.0259,-1.00E-04,7.00E-04,0,41.201,-27.31,30.4,-29.69,37.01,1.03,-8.7,2,1015.15,41.093,30.453508,-84.31867,70.19,NaN,,0,82.99355,,20-Aug,36208,2018-04-20 21:37:22:360,,,
1.5045,-0.6133,9.8033,1.484,-0.1873,9.6953,-0.0604,0.3848,-0.0032,-1.00E-04,5.00E-04,0,41.201,-26.67,30.12,-30.29,37.03,1.08,-8.7,2,1015.15,41.093,30.453508,-84.31867,70.19,NaN,,0,82.99355,,20-Aug,36308,2018-04-20 21:37:22:460,,,
1.495,-0.6024,9.8165,1.4845,-0.1903,9.6952,-0.0692,0.3773,-0.0154,3.00E-04,2.00E-04,1.00E-04,41.201,-26.45,30.78,-30.78,34.71,1.11,-8.71,2,1015.14,25.026,30.453508,-84.31867,70.19,NaN,,0,82.99355,,20-Aug,36409,2018-04-20 21:37:22:561,,,
1.4938,-0.6096,9.8237,1.4856,-0.1978,9.6948,-0.0639,0.3781,-0.0097,-1.00E-04,2.00E-04,-4.00E-04,41.201,-26.2,30.3,-30.23,35.81,1.14,-8.71,2,1015.14,25.026,30.453508,-84.31867,70.19,NaN,,0,82.99355,,20-Aug,36507,2018-04-20 21:37:22:659,,,
1.4926,-0.6121,9.8141,1.486,-0.2008,9.6947,-0.0705,0.3631,-0.017,3.00E-04,-3.00E-04,3.00E-04,41.201,-26.77,29.91,-29.69,37.08,1.17,-8.71,2,1015.14,25.026,30.453508,-84.31867,70.19,NaN,,0,82.99355,,20-Aug,36608,2018-04-20 21:37:22:760,,,
1.4914,-0.606,9.8369,1.4873,-0.208,9.6944,-0.0646,0.3558,-0.0089,-2.00E-04,0,4.00E-04,41.201,-26.17,29.9,-31.52,35.49,1.21,-8.72,2,1015.14,30.068,30.453508,-84.31867,70.19,NaN,,0,82.99355,,20-Aug,36709,2018-04-20 21:37:22:861,,,
1.4938,-0.5964,9.8165,1.489,-0.2138,9.694,-0.0655,0.3523,-0.0128,7.00E-04,-5.00E-04,0,41.201,-26.19,30.47,-31.4,35.67,1.23,-8.73,2,1015.14,30.068,30.453508,-84.31867,70.19,NaN,,0,82.99355,,20-Aug,36807,2018-04-20 21:37:22:959,,,
1.495,-0.6108,9.8201,1.4892,-0.2171,9.6939,-0.0586,0.3533,-0.0095,-6.00E-04,4.00E-04,1.00E-04,41.201,-26.52,31.14,-30.57,36.02,1.25,-8.73,2,1015.14,30.068,30.453508,-84.31867,70.19,NaN,,0,82.99355,,20-Aug,36907,2018-04-20 21:37:23:059,,,
1.4998,-0.6012,9.8093,1.4907,-0.224,9.6935,-0.0544,0.3384,-0.0193,-1.00E-04,-1.00E-04,2.00E-04,41.201,-26.18,30.75,-29.45,35.13,1.29,-8.74,2,1015.14,39.085,30.453508,-84.31867,70.19,NaN,,0,82.99355,,20-Aug,37008,2018-04-20 21:37:23:160,,,
1.4902,-0.6108,9.8117,1.4911,-0.2271,9.6934,-0.0588,0.3468,-0.0089,-2.00E-04,-2.00E-04,2.00E-04,41.201,-26.32,31.29,-30.92,34.8,1.33,-8.75,2,1015.14,39.085,30.453508,-84.31867,70.19,NaN,,0,82.99355,,20-Aug,37107,2018-04-20 21:37:23:259,,,
1.4974,-0.5988,9.8177,1.4925,-0.2338,9.693,-0.0614,0.3278,-0.0224,1.00E-04,-1.00E-04,0,41.201,-26.5,30.89,-30.83,36.07,1.37,-8.75,2,1015.14,39.085,30.453508,-84.31867,70.19,NaN,,0,82.99355,,20-Aug,37207,2018-04-20 21:37:23:359,,,
1.4902,-0.5976,9.8177,1.4934,-0.2394,9.6927,-0.0657,0.3468,-0.0153,-3.00E-04,1.00E-04,0,41.201,-25.53,30.27,-30.68,35.73,1.38,-8.76,2,1015.15,24.743,30.453508,-84.31867,70.19,NaN,,0,82.99355,,20-Aug,37308,2018-04-20 21:37:23:460,,,
1.4902,-0.6157,9.8225,1.4941,-0.2425,9.6925,-0.0601,0.3203,-0.0144,-4.00E-04,-5.00E-04,0,41.201,-26.92,30.39,-30.5,37.18,1.42,-8.76,2,1015.15,24.743,30.453508,-84.31867,70.19,NaN,,0,82.99355,,20-Aug,37408,2018-04-20 21:37:23:560,,,
1.4962,-0.6024,9.8189,1.4952,-0.2492,9.6922,-0.0674,0.3182,-0.0195,-3.00E-04,4.00E-04,-4.00E-04,41.201,-26.51,29.86,-31.11,37.03,1.46,-8.77,2,1015.15,24.743,30.453508,-84.31867,70.19,NaN,,0,82.99355,,20-Aug,37507,2018-04-20 21:37:23:659,,,
1.4866,-0.588,9.8213,1.496,-0.2518,9.692,-0.0519,0.3093,-0.0198,0,-7.00E-04,-1.00E-04,41.201,-24.96,31.62,-30.38,32.89,1.46,-8.77,2,1015.15,24.743,30.453508,-84.31867,70.19,NaN,,0,82.99355,,20-Aug,37607,2018-04-20 21:37:23:759,,,
1.4914,-0.6121,9.8273,1.4969,-0.2582,9.6917,-0.0576,0.3101,-0.0199,-3.00E-04,-2.00E-04,2.00E-04,41.201,-26.55,30.88,-30.48,36.28,1.49,-8.78,2,1015.15,31.107,30.453508,-84.31867,70.19,NaN,,0,82.99355,,20-Aug,37708,2018-04-20 21:37:23:860,,,
1.489,-0.6012,9.8069,1.4981,-0.2637,9.6914,-0.0565,0.3068,-0.0106,0,-5.00E-04,5.00E-04,41.201,-26.21,30.24,-30.08,35.97,1.52,-8.78,2,1015.15,31.107,30.453508,-84.31867,70.19,NaN,,0,82.99355,,20-Aug,37807,2018-04-20 21:37:23:959,,,
1.4962,-0.6024,9.8153,1.4987,-0.2662,9.6912,-0.0566,0.3041,-0.0217,0,-4.00E-04,2.00E-04,41.201,-25.96,30.24,-30.48,35.98,1.55,-8.79,2,1015.15,31.107,30.453508,-84.31867,70.19,NaN,,0,82.99355,,20-Sep,37906,2018-04-20 21:37:24:058,,,
1.4926,-0.6012,9.8237,1.4995,-0.272,9.6909,-0.0595,0.2982,-0.0183,0,6.00E-04,-1.00E-04,41.201,-25.75,31.15,-30.46,35.07,1.57,-8.8,2,1015.15,31.651,30.453508,-84.31867,70.19,NaN,,0,82.99355,,20-Sep,38008,2018-04-20 21:37:24:160,,,
1.4914,-0.6145,9.8321,1.5,-0.275,9.6907,-0.0554,0.2926,-0.0162,-8.00E-04,-1.00E-04,3.00E-04,41.201,-25.4,29.55,-30.9,34.52,1.61,-8.8,2,1015.15,31.651,30.453508,-84.31867,70.19,NaN,,0,82.99355,,20-Sep,38109,2018-04-20 21:37:24:261,,,
1.489,-0.6,9.8141,1.5001,-0.2808,9.6906,-0.0481,0.289,-0.0247,3.00E-04,3.00E-04,0,41.201,-26.18,29.95,-30.95,35.85,1.64,-8.8,2,1015.15,31.651,30.453508,-84.31867,70.19,NaN,,0,82.99355,,20-Sep,38207,2018-04-20 21:37:24:359,,,
1.4902,-0.6024,9.8285,1.5001,-0.2833,9.6905,-0.0487,0.2866,-0.0249,0,-3.00E-04,2.00E-04,41.201,-26.5,30.73,-30.78,34.94,1.65,-8.8,2,1015.15,24.4,30.453508,-84.31867,70.19,NaN,,0,82.99355,,20-Sep,38307,2018-04-20 21:37:24:459,,,
1.4986,-0.5976,9.8237,1.5011,-0.2879,9.6902,-0.0447,0.289,-0.0071,-1.00E-04,0,-2.00E-04,41.201,-25.82,30.55,-30.88,34.95,1.67,-8.8,2,1015.15,24.4,30.453508,-84.31867,70.19,NaN,,0,82.99355,,20-Sep,38410,2018-04-20 21:37:24:562,,,
1.489,-0.6121,9.8273,1.5019,-0.2931,9.6899,-0.0574,0.2725,-0.0277,1.00E-04,1.00E-04,-3.00E-04,41.201,-25.38,30.11,-30.98,34.57,1.7,-8.81,2,1015.15,24.4,30.453508,-84.31867,70.19,NaN,,0,82.99355,,20-Sep,38509,2018-04-20 21:37:24:661,,,
1.4998,-0.6012,9.8213,1.502,-0.2955,9.6898,-0.0535,0.2727,-0.0218,0,3.00E-04,-2.00E-04,41.201,-26.02,30.34,-30.02,36.05,1.71,-8.81,2,1015.15,24.4,30.453508,-84.31867,70.19,NaN,,0,82.99355,,20-Sep,38608,2018-04-20 21:37:24:760,,,
1.4962,-0.5964,9.8249,1.5028,-0.3009,9.6895,-0.0573,0.2729,-0.0126,-1.00E-04,9.00E-04,1.00E-04,41.201,-26.41,30.66,-30.12,35.15,1.74,-8.81,2,1015.15,23.942,30.453508,-84.31867,70.19,NaN,,0,82.99355,,20-Sep,38707,2018-04-20 21:37:24:859,,,
1.4974,-0.5928,9.8165,1.5031,-0.3032,9.6894,-0.0463,0.261,-0.0115,1.00E-04,-1.00E-04,-1.00E-04,41.201,-25.67,30.17,-30.27,36.08,1.77,-8.82,2,1015.15,23.942,30.453508,-84.31867,70.19,NaN,,0,82.99355,,20-Sep,38807,2018-04-20 21:37:24:959,,,
1.4902,-0.6,9.8141,1.5038,-0.3077,9.6892,-0.0527,0.2601,-0.0249,-4.00E-04,-1.00E-04,2.00E-04,41.201,-26.2,29.23,-30.92,36.89,1.8,-8.82,2,1015.15,23.942,30.453508,-84.31867,70.19,NaN,,0,82.99355,,20-Sep,38908,2018-04-20 21:37:25:060,,,
1.495,-0.6072,9.8141,1.5048,-0.3129,9.6888,-0.047,0.2509,-0.0252,-4.00E-04,-4.00E-04,-5.00E-04,41.201,-26.44,30.47,-31,35.93,1.81,-8.83,2,1015.15,37.076,30.453508,-84.31867,70.19,NaN,,0,82.99355,,20-Sep,39008,2018-04-20 21:37:25:160,,,
1.4938,-0.5964,9.8273,1.5051,-0.3149,9.6887,-0.048,0.2452,-0.0133,1.00E-04,2.00E-04,-2.00E-04,41.201,-25.57,30.38,-31.39,35.94,1.83,-8.83,2,1015.15,37.076,30.453508,-84.31867,70.19,NaN,,0,82.99355,,20-Sep,39107,2018-04-20 21:37:25:259,,,
1.4938,-0.5964,9.8177,1.5058,-0.3196,9.6885,-0.0437,0.2423,-0.0208,2.00E-04,-7.00E-04,-4.00E-04,41.201,-26.13,29.53,-30.4,36.12,1.85,-8.83,2,1015.15,37.076,30.453508,-84.31867,70.19,NaN,,0,82.99355,,20-Sep,39207,2018-04-20 21:37:25:359,,,
1.4807,-0.6024,9.8225,1.5058,-0.3216,9.6884,-0.0396,0.2455,-0.0198,4.00E-04,6.00E-04,0,41.201,-26.23,30.8,-29.71,35.21,1.88,-8.83,2,1015.15,24.347,30.453508,-84.31867,70.19,NaN,,0,82.99355,,20-Sep,39308,2018-04-20 21:37:25:460,,,
1.4854,-0.6,9.8165,1.5064,-0.3261,9.6882,-0.0336,0.2516,-0.0176,-2.00E-04,-1.00E-04,-5.00E-04,41.201,-26.12,30.5,-30.07,36.14,1.89,-8.84,2,1015.15,24.347,30.453508,-84.31867,70.19,NaN,,0,82.99355,,20-Sep,39407,2018-04-20 21:37:25:559,,,
1.4819,-0.6121,9.8189,1.5066,-0.3291,9.688,-0.0467,0.2412,-0.0056,-4.00E-04,0,1.00E-04,41.201,-25.54,30.57,-30.31,35.23,1.92,-8.84,2,1015.15,24.347,30.453508,-84.31867,70.19,NaN,,0,82.99355,,20-Sep,39507,2018-04-20 21:37:25:659,,,
1.4926,-0.6096,9.8225,1.507,-0.3334,9.6878,-0.0471,0.2297,-0.0215,-3.00E-04,0,1.00E-04,41.201,-26.23,30.47,-31.81,35.83,1.95,-8.84,2,1015.15,25.54,30.453508,-84.31867,70.19,NaN,,0,82.99355,,20-Sep,39609,2018-04-20 21:37:25:761,,,
1.4962,-0.5964,9.8225,1.5082,-0.3383,9.6875,-0.0472,0.229,-0.0242,-4.00E-04,-2.00E-04,-2.00E-04,41.201,-26.54,30.68,-30.84,36.33,1.96,-8.85,2,1015.15,25.54,30.453508,-84.31867,70.19,NaN,,0,82.99355,,20-Sep,39707,2018-04-20 21:37:25:859,,,
1.4902,-0.6012,9.8201,1.5085,-0.3409,9.6873,-0.035,0.2361,-0.0087,-0.0011,0,0,41.201,-26.32,29.8,-31.16,36.02,1.99,-8.85,2,1015.14,25.54,30.453508,-84.31867,70.19,NaN,,0,82.99355,,20-Sep,39807,2018-04-20 21:37:25:959,,,
1.5022,-0.6012,9.8141,1.5004,-0.3487,9.6883,-0.0819,0.1898,0.0189,-0.0061,0.0119,0.0018,41.201,-26.24,30.26,-31,36.02,2,-8.85,2,1015.14,28.501,30.453508,-84.31867,70.19,NaN,,0,82.99355,,20-Sep,39908,2018-04-20 21:37:26:060,,,
1.458,-0.6518,9.8741,1.4882,-0.3516,9.6901,-0.1256,0.186,-0.0048,-0.002,0.0213,-2.00E-04,41.201,-26.66,29.86,-30.35,37.57,2.05,-8.73,2,1015.14,28.501,30.453508,-84.31867,70.19,NaN,,0,82.99355,,20-Sep,40008,2018-04-20 21:37:26:160,,,
1.5129,-0.588,9.8537,1.3054,-0.3535,9.7163,-0.0393,0.1887,0.0073,-0.0011,0.2084,-0.001,41.201,-25.46,30.93,-30.61,34.16,2.05,-8.42,2,1015.14,28.501,30.453508,-84.31867,70.19,NaN,,0,82.99355,,20-Sep,40107,2018-04-20 21:37:26:259,,,
1.0831,-0.6048,9.7733,0.9912,-0.3415,9.7538,-0.2675,0.3017,0.0483,0.0374,0.2598,0.032,41.201,-24.6,30.19,-31.89,36.29,2.12,-6.74,2,1015.14,28.501,30.453508,-84.31867,70.19,NaN,,0,82.99355,,20-Sep,40207,2018-04-20 21:37:26:359,,,
0.7167,-0.6157,9.9257,0.9794,-0.2299,9.7583,0.0419,0.2891,0.0692,0.1712,0.0495,0.0109,41.201,-23.86,29.8,-32.45,35.32,1.34,-5.73,2,1015.14,32.633,30.453508,-84.31867,70.19,NaN,,0,82.99355,,20-Sep,40308,2018-04-20 21:37:26:460,,,
1.0605,-0.0257,10.0564,1.1048,0.0046,9.7476,-0.414,0.0085,-0.5915,0.1365,-0.0622,-0.0717,41.201,-23.88,28.88,-32.32,34.9,-0.03,-6.47,2,1015.14,32.633,30.453508,-84.31867,70.19,NaN,,0,82.99355,,20-Sep,40407,2018-04-20 21:37:26:559,,,
1.4532,-0.2954,10.6789,0.774,0.0082,9.7794,-0.3932,-0.0138,0.2132,0.0088,0.4856,-0.0203,41.201,-23.67,28.73,-33.18,36.3,-0.05,-4.53,2,1015.14,32.633,30.453508,-84.31867,70.19,NaN,,0,82.99355,,20-Sep,40509,2018-04-20 21:37:26:661,,,
0.4314,-0.2063,8.6387,0.2367,0.217,9.8047,0.2077,0.7957,-0.429,0.2178,0.3512,-0.0766,54.935,-22.18,28.62,-34.08,34.87,-0.47,-2.64,2,1015.14,38.223,30.453508,-84.31867,70.19,NaN,,0,82.99355,,20-Sep,40607,2018-04-20 21:37:26:759,,,
0.5818,0.0887,10.878,-0.4062,0.1026,9.801,0.3012,0.3603,-1.2931,-0.2249,0.7524,0.169,54.935,-20.19,28.02,-34.97,34.27,-1.56,-0.45,2,1015.15,38.223,30.453508,-84.31867,70.19,NaN,,0,82.99355,,20-Sep,40707,2018-04-20 21:37:26:859,,,
-0.5355,-0.1895,11.2127,-1.0321,-0.4218,9.7464,-0.2212,-0.3048,-0.7455,-0.8351,0.9927,0.5078,54.935,-18.14,28.54,-35.89,33.55,-0.6,2.37,2,1015.15,38.223,30.453508,-84.31867,70.19,NaN,,0,82.99355,,20-Sep,40807,2018-04-20 21:37:26:959,,,
-2.4801,-1.7197,11.3278,-2.1413,-1.9321,9.3765,0.9887,1.0359,-1.221,-1.1174,0.802,-0.1485,54.935,-12.1,35.02,-33.64,30.09,7.41,10.08,2,1015.14,35.323,30.453508,-84.31867,70.19,NaN,,0,82.99355,,20-Sep,40908,2018-04-20 21:37:27:060,,,
-2.9696,-2.6552,10.4211,-2.3016,-2.1912,9.281,0.1799,0.2681,-1.5137,-0.6058,0.1961,0.3554,54.935,-10.03,38.93,-31.88,28.84,12.91,13.93,2,1015.14,35.323,30.453508,-84.31867,70.19,NaN,,0,82.99355,,20-Sep,41008,2018-04-20 21:37:27:160,,,
-3.5939,-2.9441,10.5878,-3.0417,-2.1309,9.0798,0.5961,0.8291,-1.5186,-0.0718,0.6885,0.2922,54.935,-7.29,39.82,-31.91,27.03,12.55,18.52,2,1015.14,35.323,30.453508,-84.31867,70.19,NaN,,0,82.99355,,20-Sep,41107,2018-04-20 21:37:27:259,,,
-4.1,-2.672,10.9644,-3.5139,-1.8331,8.9738,0.4134,0.6998,-2.5175,0.4662,0.6956,1.2322,54.935,-5.08,39.45,-31.93,26.26,10.77,21.38,2,1015.14,31.188,30.453508,-84.31867,70.19,NaN,,0,82.99355,,20-Sep,41207,2018-04-20 21:37:27:359,,,
-3.9245,-1.4283,10.2483,-4.2357,-0.8925,8.8033,-0.0348,0.5274,-2.0471,0.187,0.2998,1.1228,54.935,2.34,37.88,-33.42,19.63,5.22,25.69,2,1015.14,31.188,30.453508,-84.31867,70.19,NaN,,0,82.99355,,20-Sep,41308,2018-04-20 21:37:27:460,,,
-4.3758,-1.0214,10.3023,-4.3794,-0.2862,8.7735,0.1741,0.0585,-0.3825,0.166,-0.067,0.2214,155.296,4.24,35.7,-34.35,18.71,2.46,26.72,2,1015.14,31.188,30.453508,-84.31867,70.19,NaN,,0,82.99355,,20-Sep,41408,2018-04-20 21:37:27:560,,,
-4.5871,-0.411,9.2804,-4.4553,0.1033,8.7393,0.6757,1.0052,0.0069,0.5392,0.1628,0.1866,155.296,5.67,35.84,-34.48,15.66,1.67,26.53,2,1015.13,31.188,30.453508,-84.31867,70.19,NaN,,0,82.99355,,20-Sep,41507,2018-04-20 21:37:27:659,,,
-4.6778,-0.4062,8.2513,-4.1893,1.8764,8.6698,-0.2293,1.168,1.7524,1.1993,-0.1525,0.6447,155.296,6.73,28.71,-36.98,17.07,-6.42,26.26,2,1015.12,24.827,30.453508,-84.31867,70.19,NaN,,0,82.99355,,20-Sep,41608,2018-04-20 21:37:27:760,,,
-4.8413,0.8785,7.2065,-4.2156,2.3525,8.5399,-0.1165,0.4185,1.4533,0.6542,0.1528,0.5156,155.296,7.25,24.42,-39.72,19.3,-13.88,26.27,2,1015.12,24.827,30.453508,-84.31867,70.19,NaN,,0,82.99355,,20-Sep,41707,2018-04-20 21:37:27:859,,,
-2.997,2.2991,6.4749,-3.7744,3.7435,8.2448,-2.5323,0.6802,3.5627,1.0702,-0.2538,0.9176,155.296,7.71,18.16,-39.81,16.43,-22.43,24.6,2,1015.11,24.827,30.453508,-84.31867,70.19,NaN,,0,82.99355,,20-Sep,41808,2018-04-20 21:37:27:960,,,
-1.2363,3.1347,4.7765,-3.0042,4.2392,8.321,-1.2239,1.5628,2.6445,0.1134,-0.501,0.2536,155.296,6.17,16.58,-41.46,16.66,-24.94,21.86,2,1015.09,26.761,30.453508,-84.31867,70.19,NaN,,0,82.99355,,20-Sep,41908,2018-04-20 21:37:28:060,,,
-1.8093,3.8739,6.3861,-2.7976,4.3327,8.3449,-0.9019,0.8245,1.0418,0.1122,-0.3371,0.0579,155.296,4.6,15.07,-41.47,14.82,-26.21,18.53,2,1015.09,26.761,30.453508,-84.31867,70.19,NaN,,0,82.99355,,20-Sep,42007,2018-04-20 21:37:28:159,,,
-1.6087,3.3827,7.7847,-2.5118,4.4687,8.364,0.4339,-0.1285,-0.1651,-0.168,-0.326,-0.3682,274.674,3.84,14.36,-42.78,15.66,-28.12,17.4,2,1015.09,26.761,30.453508,-84.31867,70.19,NaN,,0,82.99355,,20-Sep,42108,2018-04-20 21:37:28:260,,,
-3.2966,5.0574,8.0018,-2.543,4.4176,8.3818,-0.1513,-0.0494,-0.8585,0.0611,-0.272,-0.6483,274.674,1.32,14.88,-41.79,19.27,-27.1,16.72,2,1015.09,27.661,30.453508,-84.31867,70.19,NaN,,0,82.99355,,20-Sep,42207,2018-04-20 21:37:28:359,,,
-2.4634,4.069,9.657,-2.1959,4.809,8.2636,0.5902,-0.1951,-0.464,0.6455,-0.5757,-0.5972,274.674,-2.32,11.85,-43,24.13,-27.86,15.36,2,1015.09,27.661,30.453508,-84.31867,70.19,NaN,,0,82.99355,,20-Sep,42309,2018-04-20 21:37:28:461,,,
-2.9409,5.1586,8.4684,-2.3627,4.4582,8.413,0.4189,-0.7221,0.4371,-1.0952,-0.1426,-0.5672,274.674,-3.43,12.48,-43.41,26.48,-27.03,15.69,2,1015.09,27.661,30.453508,-84.31867,70.19,NaN,,0,82.99355,,20-Sep,42407,2018-04-20 21:37:28:559,,,
-2.5016,3.6271,7.9238,-2.1862,2.9095,9.11,-0.7539,0.4529,-0.3359,-1.4401,-0.5308,-0.3316,274.674,-5.03,19.18,-42.06,26.11,-17.25,13.49,2,1015.08,27.661,30.453508,-84.31867,70.19,NaN,,0,82.99355,,20-Sep,42507,2018-04-20 21:37:28:659,,,
-1.4452,2.2823,9.6138,-1.9863,2.2069,9.3499,0.3363,0.0679,-0.5955,-0.3915,-0.2463,-0.6269,274.674,-7.51,20.59,-42.02,28.93,-14.93,12.37,2,1015.08,32.709,30.453508,-84.31867,70.19,NaN,,0,82.99355,,20-Sep,42607,2018-04-20 21:37:28:759,,,
-2.8753,2.1041,9.6846,-1.5519,1.9329,9.4917,0.6001,-0.2036,-0.333,-0.3452,-0.8099,-0.6842,274.674,-10.07,22.54,-41.25,28.63,-11.36,9.29,2,1015.07,32.709,30.453508,-84.31867,70.19,NaN,,0,82.99355,,20-Sep,42707,2018-04-20 21:37:28:859,,,
-1.2721,1.9512,9.597,-0.6645,1.762,9.6276,0.0361,0.0593,-0.5235,-0.0438,-0.5581,-0.358,165.861,-15.45,22.99,-39.91,30.9,-10.35,3.95,2,1015.07,32.709,30.453508,-84.31867,70.19,NaN,,0,82.99355,,20-Sep,42807,2018-04-20 21:37:28:959,,,
-0.7253,1.7538,9.7362,-0.5763,1.9342,9.6001,-0.0119,0.0817,0.5941,0.2738,-0.1862,-0.2088,165.861,-15.94,21.68,-38.93,33.26,-10.35,3.95,2,1015.07,47.989,30.453508,-84.31867,70.19,NaN,,0,82.99355,,20-Sep,42908,2018-04-20 21:37:29:060,,,
-0.5654,1.9379,9.0981,-0.4628,2.0558,9.581,-0.4188,0.3375,0.4943,0.001,-0.0744,-0.0547,165.861,-17.41,20.28,-39.75,34.45,-12.13,2.96,2,1015.05,47.989,30.453508,-84.31867,70.19,NaN,,0,82.99355,,20-Sep,43007,2018-04-20 21:37:29:159,,,
-0.9545,1.9091,10.1836,-0.5473,1.9599,9.5966,-0.0205,0.2485,-0.5114,0.0141,-0.0233,0.0054,165.861,-16.76,20.96,-39.78,34.35,-11.4,3.38,2,1015.06,47.989,30.453508,-84.31867,70.19,NaN,,0,82.99355,,20-Sep,43108,2018-04-20 21:37:29:260,,,
-0.4806,1.8103,9.8513,-0.5818,2.0428,9.5773,-0.2049,-0.0011,0.1583,0.1427,0.0523,-0.0378,165.861,-17.31,20.49,-40.41,35.04,-12.02,3.48,2,1015.06,45.432,30.453508,-84.31867,70.19,NaN,,0,82.99355,,20-Sep,43209,2018-04-20 21:37:29:361,,,
-0.44,2.021,9.5299,-0.4941,2.0502,9.5806,-0.2169,0.1392,0.0405,-0.0129,-0.1278,-0.0362,165.861,-17.65,20.23,-39.25,36.4,-12.1,3.38,2,1015.05,45.432,30.453508,-84.31867,70.19,NaN,,0,82.99355,,20-Sep,43307,2018-04-20 21:37:29:459,,,
-0.3971,1.9054,9.6546,-0.4687,2.019,9.5885,-0.0121,0.1787,-0.3323,-0.0411,-0.0486,-0.0109,165.861,-18.5,19.97,-39.58,35.82,-11.88,2.8,2,1015.05,45.432,30.453508,-84.31867,70.19,NaN,,0,82.99355,,20-Sep,43408,2018-04-20 21:37:29:560,,,
-0.5057,1.773,10.0636,-0.4383,2.0514,9.5831,-0.0377,0.1814,0.0946,0.0517,-0.0458,-0.0105,87.684,-17.82,20.54,-38.48,34.86,-12.07,2.62,2,1015.05,34.119,30.453508,-84.31867,70.19,NaN,,0,82.99355,,20-Sep,43507,2018-04-20 21:37:29:659,,,
-0.5606,1.8416,9.7086,-0.443,2.0239,9.5887,0.01,0.1695,-0.3926,-0.0219,0.0015,0.0629,87.684,-18.12,19.89,-39.01,35.83,-11.95,2.71,2,1015.05,34.119,30.453508,-84.31867,70.19,NaN,,0,82.99355,,20-Sep,43608,2018-04-20 21:37:29:760,,,
-0.5164,1.8139,10.096,-0.425,2.0847,9.5765,-0.0868,0.0643,0.0266,0.0988,-0.0174,0.0712,87.684,-17.62,19.47,-39.62,36.63,-11.91,2.65,2,1015.05,34.119,30.453508,-84.31867,70.19,NaN,,0,82.99355,,20-Sep,43707,2018-04-20 21:37:29:859,,,
-0.3637,1.9343,9.5551,-0.4419,2.1282,9.5662,-0.0854,0.1577,0.1188,0.005,0.0275,0.018,87.684,-18.33,20.41,-38.9,35.35,-12.55,2.57,2,1015.05,50.061,30.453508,-84.31867,70.19,NaN,,0,82.99355,,20-Sep,43807,2018-04-20 21:37:29:959,,,
-0.4269,1.8994,9.8093,-0.4314,2.1216,9.5681,-0.0818,0.1107,0.1098,-0.0137,-0.0105,0.012,87.684,-17.35,19.91,-39.35,34,-12.49,2.58,2,1015.05,50.061,30.453508,-84.31867,70.19,NaN,,0,82.99355,,20-Sep,43907,2018-04-20 21:37:30:059,,,
-0.4341,2.0367,9.5874,-0.4549,2.0369,9.5854,0.0161,0.1572,0.0048,-0.1189,0.0601,-0.0577,87.684,-17.46,19.91,-38.59,33.92,-12.41,2.46,2,1015.05,50.061,30.453508,-84.31867,70.19,NaN,,0,82.99355,,20-Sep,44008,2018-04-20 21:37:30:160,,,
-0.5284,1.8344,9.6966,-0.4466,1.9972,9.5942,0.016,0.0546,-0.2225,0.0062,-0.0269,-0.0221,87.684,-18.42,20.37,-38.9,35.9,-11.75,2.66,2,1015.05,50.061,30.453508,-84.31867,70.19,NaN,,0,82.99355,,20-Sep,44107,2018-04-20 21:37:30:259,,,
-0.3589,1.9476,9.6894,-0.4105,2.0554,9.5835,-0.1296,0.0762,0.1801,0.0907,-0.0378,-0.0261,87.684,-17.4,19.75,-38.64,34.08,-12.09,2.45,2,1015.05,41.908,30.453508,-84.31867,70.19,NaN,,0,82.99355,,20-Sep,44207,2018-04-20 21:37:30:359,,,
-0.3708,1.8922,9.5659,-0.3583,2.0281,9.5914,-0.0629,0.1501,0.1221,-0.0247,-0.0312,-0.0094,87.684,-18.22,20.11,-39.41,35.27,-11.93,2.14,2,1015.05,41.908,30.453508,-84.31867,70.19,NaN,,0,82.99355,,20-Sep,44307,2018-04-20 21:37:30:459,,,Drop
-0.3565,1.8501,9.5814,-0.3315,2.0036,9.5975,0.0188,0.0956,-0.0652,-0.0377,-0.0539,-0.0441,87.684,-17.92,19.47,-38.91,36.18,-11.78,1.98,2,1015.05,41.908,30.453508,-84.31867,70.19,NaN,,0,82.99355,,20-Sep,44408,2018-04-20 21:37:30:560,,,Drop
-0.4651,1.8477,10.0684,-0.3472,2.0018,9.5973,0.0266,0.0579,-0.0862,0.0372,0.016,-0.0063,87.684,-18.4,19.8,-38.92,35.32,-11.64,2.01,2,1015.05,43.459,30.453508,-84.31867,70.19,NaN,,0,82.99355,,20-Sep,44509,2018-04-20 21:37:30:661,,,Drop
-0.3839,1.9271,9.681,-0.3435,2.0107,9.5956,-0.1184,0.0875,0.0511,0.0181,-0.0056,-0.0029,87.684,-19.06,19.95,-39.89,36.47,-11.83,2.05,2,1015.05,43.459,30.453508,-84.31867,70.19,NaN,,0,82.99355,,20-Sep,44607,2018-04-20 21:37:30:759,,,Drop
-0.372,1.8621,9.7673,-0.3577,1.9628,9.605,-0.0319,0.1503,-0.2071,-0.0523,0.014,0.0053,87.684,-18.4,19.76,-39.12,35.35,-11.73,2.1,2,1015.05,43.459,30.453508,-84.31867,70.19,NaN,,0,82.99355,,20-Sep,44708,2018-04-20 21:37:30:860,,,Drop
-0.3851,1.7778,9.9257,-0.3703,1.9587,9.6053,-0.0351,0.1117,0.061,-0.0081,0.007,-0.0094,87.684,-18.25,21.08,-39.19,34.58,-11.56,2.18,2,1015.05,48.253,30.453508,-84.31867,70.19,NaN,,0,82.99355,,20-Sep,44807,2018-04-20 21:37:30:959,,,Drop
-0.4114,1.7525,9.8825,-0.3767,1.9521,9.6064,-0.0094,0.1339,-0.0466,-0.0132,0.0123,0.0107,87.684,-18.02,19.84,-39.31,35.64,-11.48,2.25,2,1015.05,48.253,30.453508,-84.31867,70.19,NaN,,0,82.99355,,20-Sep,44907,2018-04-20 21:37:31:059,,,Drop
-0.3768,1.8236,9.651,-0.3779,1.9407,9.6087,-0.0484,0.0564,-0.0501,-0.0159,0.0067,0.008,87.684,-18.65,20.29,-39.78,36.92,-11.41,2.25,2,1015.05,48.253,30.453508,-84.31867,70.19,NaN,,0,82.99355,,20-Sep,45007,2018-04-20 21:37:31:159,,,Drop
-0.3505,1.8549,9.8621,-0.3777,1.9341,9.61,-0.0746,0.0913,-0.0664,-0.0083,0.004,0.0146,87.684,-18.68,20.84,-38.74,36.11,-11.37,2.25,2,1015.05,26.369,30.453508,-84.31867,70.19,NaN,,0,82.99355,,20-Sep,45107,2018-04-20 21:37:31:259,,,Drop
-0.3362,1.826,9.645,-0.3523,1.9506,9.6077,-0.083,0.0616,0.1538,0.013,-0.026,0.0065,87.684,-18.46,20.27,-39.31,35.62,-11.45,2.2,2,1015.05,26.369,30.453508,-84.31867,70.19,NaN,,0,82.99355,,20-Sep,45208,2018-04-20 21:37:31:360,,,Drop
-0.3541,1.8428,9.6414,-0.3362,1.9259,9.6132,-0.0044,0.0677,-0.0195,-0.0175,-0.0109,-0.0075,87.684,-19.17,20,-39.43,36.86,-11.39,2.04,2,1015.05,26.369,30.453508,-84.31867,70.19,NaN,,0,82.99355,,20-Sep,45307,2018-04-20 21:37:31:459,,,Drop
-0.3648,1.8272,9.7734,-0.3359,1.9239,9.6136,-0.0198,0.044,-0.1243,6.00E-04,-0.0036,-0.0189,87.684,-18.97,20.54,-38.29,36.05,-11.31,2,2,1015.05,26.369,30.453508,-84.31867,70.19,NaN,,0,82.99355,,20-Sep,45408,2018-04-20 21:37:31:560,,,Drop
-0.3744,1.8344,9.8537,-0.3454,1.902,9.6176,-0.0188,0.1258,-0.1302,-0.0042,0.0046,-0.0025,87.684,-19.23,20.47,-39.47,37,-11.18,2.05,2,1015.05,37.215,30.453508,-84.31867,70.19,NaN,,0,82.99355,,20-Sep,45507,2018-04-20 21:37:31:659,,,Drop
-0.5141,1.7562,9.6366,-0.3492,1.9468,9.6085,-0.022,0.1556,0.1606,0.0787,0.0055,0.0149,87.684,-17.82,19.68,-39.21,35.5,-11.45,2.08,2,1015.05,37.215,30.453508,-84.31867,70.19,NaN,,0,82.99355,,20-Sep,45609,2018-04-20 21:37:31:761,,,Drop
-0.4556,1.8428,9.4135,-0.3594,1.882,9.6211,-0.0335,0.0328,-0.1385,-0.0754,0.0175,0.0119,87.684,-18.4,20.77,-38.38,34.95,-11.06,2.14,2,1015.05,37.215,30.453508,-84.31867,70.19,NaN,,0,82.99355,,20-Sep,45707,2018-04-20 21:37:31:859,,,Drop
-0.3601,1.8501,9.8885,-0.3525,1.8745,9.6228,-0.0433,0.0519,-0.0426,0.0061,-0.0116,0.0153,87.684,-19.05,20.71,-39.21,36.23,-10.98,2.14,2,1015.05,48.433,30.453508,-84.31867,70.19,NaN,,0,82.99355,,20-Sep,45807,2018-04-20 21:37:31:959,,,Drop
-0.366,1.7863,9.7794,-0.3579,1.8861,9.6203,0.0099,0.0685,0.0771,0.02,0.015,0.0288,87.684,-18.39,20.41,-38.54,35.77,-11.02,2.1,2,1015.05,48.433,30.453508,-84.31867,70.19,NaN,,0,82.99355,,20-Sep,45907,2018-04-20 21:37:32:059,,,Drop
-0.4126,1.7634,9.6834,-0.3849,1.87,9.6224,-0.0303,0.03,0.1023,-0.0381,0.0227,0.0311,87.684,-18.17,21.22,-38.72,34.87,-11.14,2.24,2,1015.05,48.433,30.453508,-84.31867,70.19,NaN,,0,82.99355,,20-Sep,46007,2018-04-20 21:37:32:159,,,Drop
-0.4949,1.8103,9.8141,-0.3862,1.8724,9.6219,0.1064,-0.1553,0.1768,-0.0042,0.0228,0.0948,87.684,-18.15,20.87,-39.6,34.88,-11,2.3,2,1015.04,29.442,30.453508,-84.31867,70.19,NaN,,0,82.99355,,20-Sep,46107,2018-04-20 21:37:32:259,,,Drop
-0.5379,1.9777,9.5623,-0.2718,1.7532,9.6482,-0.0209,-0.0754,-0.2812,-0.1035,-0.1137,0.0581,87.684,-18.57,21.91,-39.18,35.41,-10.61,2.06,2,1015.05,29.442,30.453508,-84.31867,70.19,NaN,,0,82.99355,,20-Sep,46208,2018-04-20 21:37:32:360,,,Drop
-0.2311,1.7068,10.1788,-0.2776,1.832,9.6334,-0.0222,0.0046,0.2751,0.1182,0.0155,0.0788,87.684,-17.97,21.01,-38.83,34.5,-10.76,1.65,2,1015.05,29.442,30.453508,-84.31867,70.19,NaN,,0,82.99355,,20-Sep,46307,2018-04-20 21:37:32:459,,,Drop
-0.3481,1.8489,9.3787,-0.3083,1.9242,9.6145,-0.017,0.0756,-0.3282,0.0603,0.0385,0.0929,87.684,-18.54,21.2,-39.29,35.75,-11.31,1.84,2,1015.04,29.442,30.453508,-84.31867,70.19,NaN,,0,82.99355,,20-Sep,46407,2018-04-20 21:37:32:559,,,Drop
-0.366,1.9476,9.8405,-0.412,1.9999,9.5952,-0.143,-0.2557,0.488,0.043,0.0406,0.1277,87.684,-17.96,20.97,-39.75,34.76,-11.59,2.51,2,1015.04,26.711,30.453508,-84.31867,70.19,NaN,,0,82.99355,,20-Sep,46507,2018-04-20 21:37:32:659,,,Drop
-0.4735,2.3738,8.0917,-0.3665,2.0055,9.5958,0.0611,-0.3861,1.6147,0.0136,-0.0723,0.1472,87.684,-17.01,21.02,-39.32,33.05,-11.8,2.19,2,1015.04,26.711,30.453508,-84.31867,70.19,NaN,,0,82.99355,,20-Sep,46607,2018-04-20 21:37:32:759,,,Drop
-0.1261,2.8433,5.3978,-1.4716,1.5483,9.5746,-1.8781,-0.2497,9.7404,-0.4295,1.0395,-0.0831,87.684,-13.08,23.23,-39.55,29.61,-9.91,5.33,2,1015.03,26.711,30.453508,-84.31867,70.19,NaN,,0,82.99355,,20-Sep,46707,2018-04-20 21:37:32:859,,,Drop
0.078,0.2187,1.2021,-1.802,1.5589,9.5162,-2.4289,1.3607,9.2398,0.0307,0.5438,-0.0571,87.684,-8.88,24.77,-39.9,27.97,-9.14,10.72,2,1015.03,27.865,30.453508,-84.31867,70.19,NaN,,0,82.99355,,20-Sep,46807,2018-04-20 21:37:32:959,,,Drop
0.0768,0.0032,0.3314,-3.5323,0.9453,9.1031,-3.2235,1.0754,8.9872,-0.4475,1.4013,-0.2254,87.684,-6.05,25.81,-40.49,29.03,-7.31,16.18,2,1015.03,27.865,30.453508,-84.31867,70.19,NaN,,0,82.99355,,20-Oct,46907,2018-04-20 21:37:33:059,,,Drop
0.0542,-4.00E-04,0.4165,-0.1705,0.3628,9.8018,-4.0679,0.4972,10.2798,-0.249,-5.185,-0.2554,87.684,-0.33,27.75,-38.35,28.22,-3.88,25.3,2,1015.03,27.865,30.453508,-84.31867,70.19,NaN,,0,82.99355,,20-Oct,47007,2018-04-20 21:37:33:159,,,Drop
24.6748,-13.869,100.5303,2.1063,-0.2217,9.5786,-1.0726,1.4402,4.6214,-1.0792,-5.0138,-0.1104,136.28,-32.1,30.1,-24.62,41.47,1.29,-12.4,2,1015.06,64.546,30.453508,-84.31867,70.19,NaN,,0,82.99355,,20-Oct,47108,2018-04-20 21:37:33:260,,,Drop
2.0537,0.067,1.7851,4.2197,-0.214,8.8535,-2.0655,-0.3453,0.1352,0.0264,-1.1088,-0.0475,136.28,-36.68,31.89,-19.4,40.47,1.61,-23.2,2,1015.06,64.546,30.453508,-84.31867,70.19,NaN,,0,82.99355,,20-Oct,47207,2018-04-20 21:37:33:359,,,Drop
7.6785,-0.6217,9.9581,2.4666,-0.2211,9.4923,-1.8631,0.722,-1.9413,0.0112,3.2673,-0.005,136.28,-34.34,31.66,-22.18,41.15,1.29,-14.57,2,1015.07,64.546,30.453508,-84.31867,70.19,NaN,,0,82.99355,,20-Oct,47308,2018-04-20 21:37:33:460,,,Drop
3.2724,-0.3929,8.2621,2.7265,-0.2129,9.4211,-1.0417,0.2275,0.4625,-0.0087,0.1167,-0.0029,136.28,-34.77,31.94,-22.28,41.05,1.2,-16.53,2,1015.07,42.015,30.453508,-84.31867,70.19,NaN,,0,82.99355,,20-Oct,47407,2018-04-20 21:37:33:559,,,
4.5032,-0.364,8.743,2.7605,-0.2112,9.4112,-1.7323,0.2733,0.5448,-0.0012,-0.0052,7.00E-04,136.28,-34.37,31.41,-22.69,40.79,1.23,-16.35,2,1015.08,42.015,30.453508,-84.31867,70.19,NaN,,0,82.99355,,20-Oct,47507,2018-04-20 21:37:33:659,,,
4.4089,-0.4218,8.8954,2.7961,-0.2177,9.4006,-1.6678,0.2356,0.5465,-0.003,0.0046,7.00E-04,136.28,-34.33,31.77,-22.84,39.79,1.25,-16.49,2,1015.1,42.015,30.453508,-84.31867,70.19,NaN,,0,82.99355,,20-Oct,47607,2018-04-20 21:37:33:759,,,
4.3731,-0.4929,8.9637,2.8257,-0.2194,9.3917,-1.651,0.2413,0.5475,0.0015,-0.002,-7.00E-04,136.28,-34.46,31.16,-22.04,40.92,1.28,-16.65,2,1015.11,30.27,30.453508,-84.31867,70.19,NaN,,0,82.99355,,20-Oct,47708,2018-04-20 21:37:33:860,,,
4.3969,-0.4339,8.9433,2.8441,-0.2225,9.386,-1.605,0.1989,0.5509,-0.0015,8.00E-04,3.00E-04,136.28,-34.87,31.89,-22.08,40.92,1.3,-16.86,2,1015.11,30.27,30.453508,-84.31867,70.19,NaN,,0,82.99355,,20-Oct,47807,2018-04-20 21:37:33:959,,,
4.3969,-0.4856,8.9445,2.8715,-0.2261,9.3776,-1.5839,0.2105,0.5282,6.00E-04,-7.00E-04,-5.00E-04,36.975,-34.52,31.89,-23.14,40.59,1.31,-16.94,2,1015.12,30.27,30.453508,-84.31867,70.19,NaN,,0,82.99355,,0 / 20,47907,2018-04-20 21:37:34:059,,,
4.3969,-0.4796,8.9625,2.8851,-0.2278,9.3734,-1.5606,0.1993,0.5359,-2.00E-04,0,-3.00E-04,36.975,-34,32.18,-23.48,39.47,1.33,-17.11,2,1015.12,30.27,30.453508,-84.31867,70.19,NaN,,0,82.99355,,0 / 20,48007,2018-04-20 21:37:34:159,,,
4.4172,-0.4712,8.9493,2.9162,-0.2322,9.3637,-1.5341,0.2015,0.5336,-5.00E-04,0,-2.00E-04,36.975,-34.3,32.13,-22.98,39.37,1.36,-17.3,2,1015.12,33.521,30.453508,-84.31867,70.19,NaN,,0,82.99355,,0 / 20,48107,2018-04-20 21:37:34:259,,,
4.3898,-0.482,8.9397,2.9423,-0.2357,9.3554,-1.5223,0.2173,0.5181,-4.00E-04,2.00E-04,0,36.975,-33.93,30.92,-21.98,40.55,1.36,-17.38,2,1015.12,33.521,30.453508,-84.31867,70.19,NaN,,0,82.99355,,0 / 20,48207,2018-04-20 21:37:34:359,,,
4.4065,-0.4856,8.9505,2.9594,-0.2379,9.3499,-1.4895,0.1897,0.5123,-1.00E-04,0,0,36.975,-34.45,31.43,-23.36,40.2,1.38,-17.46,2,1015.12,33.521,30.453508,-84.31867,70.19,NaN,,0,82.99355,,0 / 20,48307,2018-04-20 21:37:34:459,,,
4.3898,-0.4676,8.9397,2.9852,-0.241,9.3417,-1.479,0.1966,0.513,2.00E-04,-8.00E-04,-3.00E-04,36.975,-35.08,31.25,-22.91,41.14,1.4,-17.64,2,1015.12,40.549,30.453508,-84.31867,70.19,NaN,,0,82.99355,,0 / 20,48409,2018-04-20 21:37:34:561,,,
4.4029,-0.4567,8.9505,2.9973,-0.2429,9.3377,-1.4461,0.1849,0.5098,-3.00E-04,6.00E-04,0,36.975,-34.13,31.51,-23.04,39.1,1.42,-17.8,2,1015.12,40.549,30.453508,-84.31867,70.19,NaN,,0,82.99355,,0 / 20,48509,2018-04-20 21:37:34:661,,,
4.3957,-0.4664,8.9469,3.0263,-0.2466,9.3283,-1.4259,0.1842,0.5005,1.00E-04,-3.00E-04,-2.00E-04,36.975,-34.03,31.25,-22.84,39.91,1.44,-17.97,2,1015.12,40.549,30.453508,-84.31867,70.19,NaN,,0,82.99355,,0 / 20,48607,2018-04-20 21:37:34:759,,,
4.3981,-0.464,8.9397,3.051,-0.25,9.3201,-1.4123,0.1824,0.494,-2.00E-04,-5.00E-04,-4.00E-04,36.975,-33.85,31.49,-22.58,39.87,1.45,-18.05,2,1015.12,34.872,30.453508,-84.31867,70.19,NaN,,0,82.99355,,0 / 20,48708,2018-04-20 21:37:34:860,,,
4.391,-0.4712,8.9386,3.0668,-0.2521,9.3149,-1.3823,0.1805,0.4812,-2.00E-04,1.00E-04,-4.00E-04,36.975,-34.05,32.12,-23.18,38.86,1.47,-18.22,2,1015.12,34.872,30.453508,-84.31867,70.19,NaN,,0,82.99355,,0 / 20,48807,2018-04-20 21:37:34:959,,,
4.3993,-0.4736,8.9517,3.0904,-0.2554,9.307,-1.3683,0.1866,0.4818,0,-9.00E-04,-3.00E-04,36.975,-34.24,31.71,-22.27,39.15,1.48,-18.29,2,1015.12,34.872,30.453508,-84.31867,70.19,NaN,,0,82.99355,,0 / 20,48907,2018-04-20 21:37:35:059,,,
4.4005,-0.4616,8.9421,3.1019,-0.2567,9.3031,-1.337,0.1875,0.4704,5.00E-04,3.00E-04,-1.00E-04,36.975,-34.73,31.24,-23.57,40.43,1.49,-18.37,2,1015.13,25.128,30.453508,-84.31867,70.19,NaN,,0,82.99355,,0 / 20,49008,2018-04-20 21:37:35:160,,,
4.3922,-0.4784,8.9421,3.128,-0.2603,9.2943,-1.3343,0.1765,0.4583,-5.00E-04,4.00E-04,-2.00E-04,36.975,-35.39,31.97,-22.49,40.06,1.51,-18.53,2,1015.13,25.128,30.453508,-84.31867,70.19,NaN,,0,82.99355,,0 / 20,49108,2018-04-20 21:37:35:260,,,
4.4053,-0.464,8.9517,3.1389,-0.2619,9.2906,-1.3178,0.1733,0.4638,-2.00E-04,6.00E-04,0,36.975,-33.27,31.47,-22.88,38.43,1.53,-18.67,2,1015.13,25.128,30.453508,-84.31867,70.19,NaN,,0,82.99355,,0 / 20,49207,2018-04-20 21:37:35:359,,,
4.3874,-0.4724,8.9481,3.1648,-0.2656,9.2817,-1.2856,0.1592,0.4456,-6.00E-04,-2.00E-04,-1.00E-04,36.975,-34.86,31.75,-22.69,39.58,1.55,-18.83,2,1015.13,25.128,30.453508,-84.31867,70.19,NaN,,0,82.99355,,0 / 20,49307,2018-04-20 21:37:35:459,,,
4.3958,-0.4579,8.9481,3.1864,-0.2683,9.2742,-1.2687,0.1685,0.4466,2.00E-04,-1.00E-04,-6.00E-04,36.975,-34.07,31.52,-23.55,38.14,1.56,-18.9,2,1015.13,39.433,30.453508,-84.31867,70.19,NaN,,0,82.99355,,0 / 20,49407,2018-04-20 21:37:35:559,,,
4.3922,-0.4676,8.9481,3.1969,-0.2695,9.2706,-1.2641,0.1637,0.4345,3.00E-04,1.00E-04,-3.00E-04,36.975,-34.25,32.18,-22.72,38.41,1.57,-19.03,2,1015.12,39.433,30.453508,-84.31867,70.19,NaN,,0,82.99355,,0 / 20,49509,2018-04-20 21:37:35:661,,,
4.3969,-0.4652,8.9457,3.2212,-0.2729,9.262,-1.2352,0.1632,0.426,-2.00E-04,-3.00E-04,-3.00E-04,36.975,-34.64,32.04,-22.33,39.72,1.59,-19.18,2,1015.12,39.433,30.453508,-84.31867,70.19,NaN,,0,82.99355,,0 / 20,49609,2018-04-20 21:37:35:761,,,
4.4017,-0.47,8.9445,3.2314,-0.2738,9.2585,-1.2136,0.167,0.4212,7.00E-04,4.00E-04,0,36.975,-34.53,31.78,-22.43,39.72,1.59,-19.18,2,1015.12,34.08,30.453508,-84.31867,70.19,NaN,,0,82.99355,,0 / 20,49707,2018-04-20 21:37:35:859,,,
4.3969,-0.4748,8.9469,3.2551,-0.2766,9.2501,-1.1937,0.1611,0.414,4.00E-04,-1.00E-04,-3.00E-04,36.975,-34.48,32.46,-23.74,37.89,1.61,-19.3,2,1015.12,34.08,30.453508,-84.31867,70.19,NaN,,0,82.99355,,0 / 20,49807,2018-04-20 21:37:35:959,,,
4.4017,-0.464,8.9409,3.2756,-0.2796,9.2428,-1.1864,0.1653,0.4067,-5.00E-04,-1.00E-04,3.00E-04,36.975,-33.58,31.73,-22.31,38.51,1.62,-19.45,2,1015.13,34.08,30.453508,-84.31867,70.19,NaN,,0,82.99355,,0 / 20,49907,2018-04-20 21:37:36:059,,,
4.4065,-0.4748,8.9421,3.2853,-0.2809,9.2393,-1.1679,0.1507,0.414,-1.00E-04,0,-1.00E-04,36.975,-34.31,31.21,-22.75,39,1.64,-19.57,2,1015.13,26.363,30.453508,-84.31867,70.19,NaN,,0,82.99355,,0 / 20,50006,2018-04-20 21:37:36:158,,,
4.4017,-0.4652,8.9361,3.3084,-0.2842,9.2309,-1.1445,0.1622,0.3936,-1.00E-04,-3.00E-04,4.00E-04,36.975,-34.38,32.09,-23.34,38.04,1.65,-19.66,2,1015.13,26.363,30.453508,-84.31867,70.19,NaN,,0,82.99355,,0 / 20,50107,2018-04-20 21:37:36:259,,,
4.3922,-0.4664,8.9421,3.318,-0.2859,9.2274,-1.1268,0.157,0.3902,-7.00E-04,-2.00E-04,2.00E-04,36.975,-34.51,31.37,-22.7,39.97,1.67,-19.78,2,1015.13,26.363,30.453508,-84.31867,70.19,NaN,,0,82.99355,,0 / 20,50208,2018-04-20 21:37:36:360,,,
4.3922,-0.4712,8.9481,3.3407,-0.289,9.2191,-1.1274,0.1363,0.3806,0,-9.00E-04,1.00E-04,36.975,-33.21,31.53,-23.69,36.4,1.69,-19.92,2,1015.12,26.363,30.453508,-84.31867,70.19,NaN,,0,82.99355,,0 / 20,50309,2018-04-20 21:37:36:461,,,
4.4005,-0.4676,8.9589,3.3498,-0.2903,9.2158,-1.1069,0.1482,0.3824,0,6.00E-04,-2.00E-04,36.975,-34.76,31.59,-22.65,38.93,1.7,-19.98,2,1015.12,37.538,30.453508,-84.31867,70.19,NaN,,0,82.99355,,0 / 20,50407,2018-04-20 21:37:36:559,,,
4.4077,-0.4724,8.9433,3.3677,-0.2931,9.2092,-1.0814,0.1504,0.3743,-7.00E-04,3.00E-04,-1.00E-04,36.975,-34.31,31.32,-23,38.74,1.7,-20.03,2,1015.13,37.538,30.453508,-84.31867,70.19,NaN,,0,82.99355,,0 / 20,50509,2018-04-20 21:37:36:661,,,
4.4005,-0.47,8.9397,3.389,-0.2955,9.2013,-1.0753,0.1322,0.3748,2.00E-04,-5.00E-04,1.00E-04,36.975,-34.23,31.77,-23.29,37.75,1.72,-20.16,2,1015.13,37.538,30.453508,-84.31867,70.19,NaN,,0,82.99355,,0 / 20,50608,2018-04-20 21:37:36:760,,,
4.3993,-0.464,8.9409,3.398,-0.297,9.1979,-1.0487,0.1382,0.3656,-5.00E-04,-3.00E-04,-1.00E-04,36.975,-34.65,31.49,-23.21,39.68,1.73,-20.28,2,1015.13,29.903,30.453508,-84.31867,70.19,NaN,,0,82.99355,,0 / 20,50707,2018-04-20 21:37:36:859,,,
4.4005,-0.476,8.9457,3.4187,-0.2997,9.1902,-1.0394,0.1216,0.3626,1.00E-04,-4.00E-04,-2.00E-04,36.975,-34.32,31.52,-22.89,37.65,1.74,-20.33,2,1015.13,29.903,30.453508,-84.31867,70.19,NaN,,0,82.99355,,0 / 20,50807,2018-04-20 21:37:36:959,,,
4.4029,-0.4543,8.9397,3.4272,-0.3012,9.1869,-1.0405,0.1382,0.3582,-5.00E-04,-1.00E-04,1.00E-04,36.975,-35.19,30.75,-23.79,39.2,1.76,-20.46,2,1015.13,29.903,30.453508,-84.31867,70.19,NaN,,0,82.99355,,0 / 20,50907,2018-04-20 21:37:37:059,,,
