ACCELEROMETER X (m/s²),ACCELEROMETER Y (m/s²),ACCELEROMETER Z (m/s²),GRAVITY X (m/s²),GRAVITY Y (m/s²),GRAVITY Z (m/s²),LINEAR ACCELERATION X (m/s²),LINEAR ACCELERATION Y (m/s²),LINEAR ACCELERATION Z (m/s²),GYROSCOPE X (rad/s),GYROSCOPE Y (rad/s),GYROSCOPE Z (rad/s),LIGHT (lux),MAGNETIC FIELD X (μT),MAGNETIC FIELD Y (μT),MAGNETIC FIELD Z (μT),ORIENTATION Z (azimuth °),ORIENTATION X (pitch °),ORIENTATION Y (roll °),PROXIMITY (i),ATMOSPHERIC PRESSURE (hPa),SOUND LEVEL (dB),LOCATION Latitude : ,LOCATION Longitude : ,LOCATION Altitude ( m),LOCATION Altitude-google ( m),LOCATION Altitude-atmospheric pressure ( m),LOCATION Speed ( Kmh),LOCATION Accuracy ( m),LOCATION ORIENTATION (°),Satellites in range,Time since start in ms ,YYYY-MO-DD HH-MI-SS_SSS
-0.181965,3.948159,8.691217,-0.248827,3.993034,8.953443,-0.457484,0.378912,-2.014834,-0.401949,0.356745,-0.205251,2,-16.7,8.4,-35.4,44.7362,-21.018,-2.558,3.15,1010.0649,39.71831,30.445732,-84.30132,138.4998,89.25398504,,1.2933,77.41936,155.6982,12-Nov,39,2018-04-16 20:54:19:110
0.308861,2.257801,9.584282,-0.692474,3.576944,9.104742,0.299813,-0.517061,-0.526055,-0.133169,-0.613309,-0.658513,2,-15.5,6.2,-36.1,44.0792,-21.392,4.3493,3.15,1010.0769,39.71831,30.445732,-84.30132,138.4998,89.25398504,,1.2933,77.41936,155.6982,12-Nov,138,2018-04-16 20:54:19:209
-0.948133,3.510007,9.186832,-0.452957,3.136122,9.280622,0.452957,-0.114547,0.377883,-0.133169,-0.613309,-0.658513,2,-15.6,4.7,-35.9,47.9689,-18.6506,2.7942,3.15,1010.0769,39.71831,30.445732,-84.30132,138.4998,89.25398504,,1.2933,77.41936,155.6982,12-Nov,238,2018-04-16 20:54:19:309
-0.256187,2.990449,8.734315,-0.452957,3.136122,9.280622,0.452957,-0.114547,0.377883,-0.161268,0.328646,-0.265116,2,-15.6,4.7,-35.9,47.9689,-18.6506,2.7942,3.15,1010.082,39.95757,30.445732,-84.30132,138.4998,89.25398504,,1.2933,77.41936,155.6982,12-Nov,338,2018-04-16 20:54:19:409
0.622511,3.438179,8.839663,-0.829665,2.915481,9.326414,0.527987,0.635228,-0.620831,0.232129,-1.684766,0.262672,2,-16.5,4.9,-34.7,52.2956,-17.2953,5.0836,3.15,1010.082,39.95757,30.445732,-84.30132,138.4998,89.25398504,,1.2933,77.41936,155.6982,12-Nov,438,2018-04-16 20:54:19:509
3.572258,1.079818,7.690411,1.962881,3.236615,9.046645,1.45375,-0.82558,-0.784003,-0.401949,-0.603535,-0.544892,2,-18.1,5.1,-33.5,52.2956,-17.2953,5.0836,3.15,1010.124,39.95757,30.445732,-84.30132,138.4998,89.25398504,,1.2933,77.41936,155.6982,12-Nov,538,2018-04-16 20:54:19:609
-2.042316,4.450957,8.593052,2.671386,2.969311,8.956409,-3.799089,1.302075,-0.679401,-0.907746,-0.227242,0.179594,2,-26.9,4.2,-27.3,55.1735,-19.2714,-12.2419,3.15,1010.124,39.83318,30.445732,-84.30132,138.4998,89.25398504,,1.2933,77.41936,155.6982,12-Nov,638,2018-04-16 20:54:19:709
2.334418,2.324841,7.110996,3.160697,2.436292,8.95795,0.105094,-0.702837,0.430002,-0.907746,-0.227242,0.179594,2,-28.9,5.3,-26.6,53.0308,-17.625,-16.608,3.15,1010.1067,39.83318,30.44572,-84.3013,61.5534,89.25398504,,0.451,103.22581,164.9087,13-Oct,747,2018-04-16 20:54:19:818
2.971295,2.561874,6.459754,3.160697,2.436292,8.95795,0.105094,-0.702837,0.430002,-0.386067,-0.189368,0.439823,2,-29.6,4.8,-25.8,53.0308,-17.625,-16.608,3.15,1010.1067,39.83318,30.44572,-84.3013,61.5534,89.25398504,,0.451,103.22581,164.9087,13-Oct,837,2018-04-16 20:54:19:908
2.607365,2.14527,6.723124,3.335795,1.830728,9.038323,0.564479,-0.305575,1.513246,0.309098,-1.53205,0.455705,0,-32.1,6.5,-22.8,59.5369,-10.7592,-20.2577,3.15,1010.0598,39.37389,30.44572,-84.3013,61.5534,89.25398504,,0.451,103.22581,164.9087,13-Oct,938,2018-04-16 20:54:20:009
4.400677,1.283331,8.277008,4.537493,1.789047,8.50769,-0.136816,-0.505715,-0.230682,0.679282,-2.217441,1.109331,0,-37,10.1,-13.5,60.3501,-10.5114,-28.0728,3.15,1010.0598,39.37389,30.44572,-84.3013,61.5534,89.25398504,,0.451,103.22581,164.9087,13-Oct,1037,2018-04-16 20:54:20:108
3.112557,-0.90743,3.802108,6.453432,1.323192,7.264482,-0.630555,-2.187525,-4.870207,0.679282,-2.217441,1.109331,0,-37,10.1,-13.5,60.3501,-10.5114,-28.0728,3.15,1010.0066,39.37389,30.44572,-84.3013,61.5534,89.25398504,,0.451,103.22581,164.9087,13-Oct,1138,2018-04-16 20:54:20:209
7.379155,-3.816474,6.804529,7.484756,-1.323048,6.196632,1.046045,-2.857355,0.967038,0.111177,-1.258382,3.342655,2,-38.7,19,-5.7,47.673,-7.7545,-41.6164,3.15,1010.0066,44.30585,30.44572,-84.3013,61.5534,89.25398504,,0.451,103.22581,164.9087,13-Oct,1238,2018-04-16 20:54:20:309
11.250697,-3.514795,6.172441,7.413417,-3.656722,5.276361,3.837281,0.141927,0.89608,1.12277,-1.591915,3.40252,2,-29.8,34.1,-1.7,30.056,7.7536,-50.3786,3.15,1010.0505,44.30585,30.44572,-84.3013,61.5534,89.25398504,,0.451,103.22581,164.9087,13-Oct,1338,2018-04-16 20:54:20:409
10.810151,-4.096604,5.463735,7.413417,-3.656722,5.276361,3.837281,0.141927,0.89608,1.141096,-0.985936,1.661554,0,-19.5,43.5,-4.4,12.7853,21.8935,-54.5593,0,1010.0505,44.30585,30.44572,-84.3013,61.5534,89.25398504,,0.451,103.22581,164.9087,13-Oct,1437,2018-04-16 20:54:20:508
12.692051,-5.344021,0.670397,7.307984,-4.38111,4.854835,2.812616,0.892652,-1.895511,0.707382,0.00733,-0.277333,0,-22.4,49.8,-7.3,10.3252,26.5353,-56.4031,0,1010.084,41.26589,30.44572,-84.3013,61.5534,89.25398504,,0.451,103.22581,164.9087,13-Oct,1538,2018-04-16 20:54:20:609
5.834848,-5.51162,3.002421,7.740377,-3.504166,4.896695,-1.476953,-1.624371,-2.160038,0.348193,1.370782,-0.397062,0,-20,45.3,-7.1,7.8486,20.9361,-57.6819,0,1010.084,41.26589,30.44572,-84.3013,61.5534,89.25398504,,0.451,103.22581,164.9087,13-Oct,1638,2018-04-16 20:54:20:709
9.838076,-3.926611,-5.899493,7.563414,-2.710865,5.62283,0.119814,-0.861393,-0.285991,0.348193,1.370782,-0.397062,0,-20,45.3,-7.1,7.8486,20.9361,-57.6819,0,1010.0876,41.26589,30.445717,-84.301285,65.291,89.25398504,,1.2934,103.22581,199.9712,13-Oct,1738,2018-04-16 20:54:20:809
3.900274,0.237033,-6.993676,7.566337,-2.370065,5.77092,-0.93659,0.701256,-10.973679,0.609644,-0.524122,-0.230907,2,-20.3,42,-8.8,7.9537,13.9857,-52.6669,0,1010.0876,45.21776,30.445717,-84.301285,65.291,89.25398504,,1.2934,103.22581,199.9712,13-Oct,1838,2018-04-16 20:54:20:909
7.951387,-2.497228,7.635343,7.566337,-2.370065,5.77092,-0.93659,0.701256,-10.973679,0.609644,-0.524122,-0.230907,2,-21.3,39,-8.3,11.0518,13.9857,-52.6669,0,1010.1858,45.21776,30.445717,-84.301285,65.291,89.25398504,,1.2934,103.22581,199.9712,13-Oct,1937,2018-04-16 20:54:21:008
10.45101,-4.695173,6.234692,8.300381,-2.232604,4.72117,-0.614758,0.1017,-1.594247,-1.114218,-0.904081,0.711047,2,-22.6,37.9,-7.6,11.0518,13.9857,-52.6669,0,1010.1858,45.21776,30.445717,-84.301285,65.291,89.25398504,,1.2934,103.22581,199.9712,13-Oct,2037,2018-04-16 20:54:21:108
9.069513,-5.317684,4.599402,8.197213,-3.578761,4.021001,-0.238644,-1.71498,2.656632,1.103223,-0.50824,0.735482,0,-21.2,39.4,-5.9,7.7255,21.4034,-63.8705,0,1010.2642,41.0996,30.445717,-84.301285,65.291,89.25398504,,1.2934,103.22581,199.9712,13-Oct,2138,2018-04-16 20:54:21:209
4.230684,-5.446975,3.996045,7.774147,-3.958036,4.479598,-2.964049,3.440873,-4.407769,-1.638341,0.161268,1.457524,0,-17.7,41.6,-6.9,7.7255,21.4034,-63.8705,0,1010.2642,41.0996,30.445717,-84.301285,65.291,89.25398504,,1.2934,103.22581,199.9712,13-Oct,2238,2018-04-16 20:54:21:309
6.672844,-5.585843,3.287339,7.1594,-5.371499,4.007515,1.352247,-2.747486,-3.528659,-1.638341,0.161268,1.457524,0,-17.7,41.6,-6.9,7.7255,21.4034,-63.8705,0,1010.4656,41.0996,30.445717,-84.301285,65.291,89.25398504,,1.2934,103.22581,199.9712,13-Oct,2338,2018-04-16 20:54:21:409
1.556279,-9.107821,4.534757,5.879151,-6.627809,4.20451,-4.322871,-2.480012,0.330247,0.597426,0.255342,0.985937,0,-12.7,43.4,-6.8,0.4962,33.2122,-60.7618,0,1010.4656,39.93642,30.445717,-84.301285,65.291,89.25398504,,1.2934,103.22581,199.9712,13-Oct,2438,2018-04-16 20:54:21:509
2.997632,-7.400703,-0.304073,3.860033,-8.261443,3.608175,-0.668465,-1.772963,-3.122137,-0.6634,-0.59987,2.452013,0,3,44.8,-6.4,348.4627,42.5201,-54.4293,0,1010.4197,39.93642,30.445717,-84.301285,65.291,89.25398504,,1.2934,103.22581,199.9712,13-Oct,2538,2018-04-16 20:54:21:609
4.333637,-14.660145,3.759012,3.860033,-8.261443,3.608175,-0.668465,-1.772963,-3.122137,-0.421497,0.442266,-0.19792,0,10.7,45.9,-3.5,341.9805,57.398,-46.9315,0,1010.4197,39.93642,30.445717,-84.301285,65.291,89.25398504,,1.2934,103.22581,199.9712,13-Oct,2639,2018-04-16 20:54:21:710
2.523566,-5.698374,2.676799,3.84244,-8.422132,3.236268,-0.138497,-1.834941,-0.956918,-0.746477,0.415388,0.312763,0,9.5,45.7,-4.1,341.2065,59.1843,-49.8945,0,1010.2949,39.93642,30.445717,-84.301285,65.291,89.25398504,,1.2934,103.22581,199.9712,13-Oct,2737,2018-04-16 20:54:21:808
3.150866,-9.62259,2.054288,3.456678,-8.764224,2.722124,-0.138213,-0.877521,-0.461928,-0.746477,0.415388,0.312763,0,11.4,45.7,-2.8,341.2065,59.1843,-49.8945,0,1010.2949,39.05394,30.445717,-84.301285,65.291,89.25398504,,1.2934,103.22581,199.9712,13-Oct,2838,2018-04-16 20:54:21:909
3.620144,-6.445388,1.709512,3.300068,-8.93354,2.339154,-0.527873,-0.36092,-1.190648,0.339641,0.255342,0.108734,0,12.3,45.8,0.8,347.8403,65.6395,-54.6702,0,1010.3401,39.05394,30.445717,-84.301285,65.291,89.25398504,,1.2934,103.22581,199.9712,13-Oct,2939,2018-04-16 20:54:22:010
3.368745,-6.979311,1.453325,3.371019,-8.923475,2.275522,-0.322481,4.945331,-0.35024,-1.193631,0.339641,-0.415388,0,12.3,45.8,0.8,347.8403,65.6395,-54.6702,0,1010.3401,39.05394,30.445717,-84.301285,65.291,89.25398504,,1.2934,103.22581,199.9712,13-Oct,3038,2018-04-16 20:54:22:109
1.115732,-8.480521,1.450931,3.692697,-8.936692,1.633871,-2.680791,1.969556,-0.282036,0.173486,0.072082,1.996308,0,11.4,46.1,6.1,357.7767,65.4974,-55.9797,0,1010.3047,39.5777,30.445717,-84.301285,65.291,89.25398504,,1.2934,103.22581,199.9712,13-Oct,3137,2018-04-16 20:54:22:208
0.495615,-15.524478,1.350371,1.724471,-9.432403,2.055742,-2.680791,1.969556,-0.282036,0.173486,0.072082,1.996308,0,13.8,44.9,7.9,2.8518,65.6843,-66.1325,0,1010.3047,39.5777,30.445717,-84.301285,65.291,89.25398504,,1.2934,103.22581,199.9712,13-Oct,3237,2018-04-16 20:54:22:308
1.197137,-9.390346,1.412622,0.912313,-9.579255,1.890966,0.498876,-2.563615,-0.137473,-0.030543,-0.279776,0.559553,0,24,40.5,9,338.9142,74.1204,-39.9918,0,1010.2717,39.5777,30.445717,-84.301285,65.291,89.25398504,,1.2934,103.22581,199.9712,13-Oct,3338,2018-04-16 20:54:22:409
0.893065,-7.216344,0.646454,0.909721,-9.60145,1.77612,0.212053,1.364904,-0.455533,-0.062308,-0.157603,0.152716,0,25.6,39.5,8.9,338.9142,74.1204,-39.9918,0,1010.2717,39.19389,30.445717,-84.301285,65.291,89.25398504,,1.2934,103.22581,199.9712,13-Oct,3438,2018-04-16 20:54:22:509
-1.661627,-9.526819,0.641666,0.909721,-9.60145,1.77612,-2.258946,-0.470978,-0.640066,-0.079412,0.460592,1.574811,0,50.5,41.6,12.8,317.2128,78.2589,-27.1213,0,1010.0605,39.19389,30.445713,-84.30128,81.3503,89.25398504,,0.6062,154.83871,222.9681,14-Oct,3538,2018-04-16 20:54:22:609
-3.021575,-11.899546,1.836409,-0.441844,-9.683679,1.483646,0.478982,-1.60438,-1.934856,0.16249,-0.577879,1.797166,0,75.8,55.9,-2.2,258.6753,80.9175,16.5841,0,1010.0605,39.19389,30.445713,-84.30128,81.3503,89.25398504,,0.6062,154.83871,222.9681,14-Oct,3638,2018-04-16 20:54:22:709
-3.284945,-10.700014,5.157268,-2.090906,-9.466707,1.476365,-0.694906,0.484245,-0.292444,0.208916,-0.625526,-0.186925,0,72.4,51.5,-9,215.3304,74.8702,54.7745,0,1010.0232,39.43004,30.445711,-84.30127,85.7273,89.25398504,,1.5084,77.41936,276.9815,14-Dec,3738,2018-04-16 20:54:22:809
-2.494834,-8.842057,2.078231,-2.167777,-9.421504,1.645027,-0.694906,0.484245,-0.292444,0.208916,-0.625526,-0.186925,0,72.4,51.5,-9,215.3304,74.8702,54.7745,0,1010.0232,39.43004,30.445711,-84.30127,85.7273,89.25398504,,1.5084,77.41936,276.9815,14-Dec,3838,2018-04-16 20:54:22:909
-0.639271,-2.015979,2.243436,-1.612106,-9.619998,1.013364,-0.232702,0.524924,0.339517,-0.513127,-0.784351,-0.139277,0,60.9,56.4,-13.7,213.2217,73.8893,52.8068,0,1010.062,39.43004,30.445711,-84.30127,85.7273,89.25398504,,1.5084,77.41936,276.9815,14-Dec,3937,2018-04-16 20:54:23:008
-0.869122,-9.689631,1.094184,-0.249448,-9.793287,0.446289,2.359855,-0.053878,-0.616889,-0.136834,0.498466,-1.257161,0,30.7,60.4,7.6,246.9136,78.8038,57.8467,0,1010.062,43.55252,30.445711,-84.30127,85.7273,89.25398504,,1.5084,77.41936,276.9815,14-Dec,4038,2018-04-16 20:54:23:109
-0.541106,-9.586677,0.387873,-0.249448,-9.793287,0.446289,-0.310799,0.208376,-0.029296,-0.113621,0.359189,0.377515,0,27,61.9,13.8,274.2914,87.0115,29.2024,0,1010.1196,43.55252,30.445711,-84.30127,85.7273,89.25398504,,1.5084,77.41936,276.9815,14-Dec,4138,2018-04-16 20:54:23:209
-1.110943,-10.685649,-0.641666,-0.576702,-9.781497,0.399649,-0.32506,0.929282,0.180939,0.086743,0.208916,-0.023213,0,28.1,59,11.8,245.2192,85.8971,55.2784,0,1010.1196,43.55252,30.445711,-84.30127,85.7273,89.25398504,,1.5084,77.41936,276.9815,14-Dec,4237,2018-04-16 20:54:23:308
-0.67758,-9.44302,0.41421,-0.868988,-9.756871,0.467191,0.036833,0.01256,-0.35563,-0.09163,-0.048869,-0.010996,0,29.3,59,11.8,240.3673,84.2259,61.7364,0,1010.093,43.55252,30.445711,-84.30127,85.7273,89.25398504,,1.5084,77.41936,276.9815,14-Dec,4337,2018-04-16 20:54:23:408
-0.715888,-9.653716,0.292102,-0.834937,-9.764434,0.358728,0.036833,0.01256,-0.35563,-0.09163,-0.048869,-0.010996,0,29.3,59,11.8,240.3673,84.2259,61.7364,0,1010.093,41.06111,30.445711,-84.30127,85.7273,89.25398504,,1.5084,77.41936,276.9815,14-Dec,4438,2018-04-16 20:54:23:509
-0.787716,-9.646533,0.086194,-0.822407,-9.766281,0.33705,-0.039071,0.076647,-0.211574,0.004887,-0.109956,-0.004887,0,30.1,58.4,9.9,229.2206,84.683,66.7494,0,1010.0498,41.06111,30.445711,-84.30127,85.7273,89.25398504,,1.5084,77.41936,276.9815,14-Dec,4538,2018-04-16 20:54:23:609
-1.247417,-9.677659,0.409421,-0.878171,-9.762403,0.306997,-0.398402,0.169548,-0.016126,-0.030543,-0.081856,-0.015882,0,30.1,58.2,10.6,229.7711,84.8,67.7145,0,1010.0498,41.06111,30.445711,-84.30127,85.7273,89.25398504,,1.5084,77.41936,276.9815,14-Dec,4638,2018-04-16 20:54:23:709
-1.30488,-9.699207,0.26337,-0.878171,-9.762403,0.306997,-0.441733,0.148309,-5.50E-05,0.008552,-0.068417,-0.001222,0,29.6,58.1,11.5,229.7711,84.8,67.7145,0,1010.1489,40.31308,30.445688,-84.30108,273.8848,89.25398504,,0,77.41936,,14 / 14,4738,2018-04-16 20:54:23:809
-1.340794,-9.744699,0.308861,-1.000941,-9.749991,0.325455,-0.28918,-1.79E-04,-0.020677,0.024435,0,0.009774,0,29.2,57.9,12.1,229.338,83.8387,71.9881,0,1010.1489,40.31308,30.445688,-84.30108,273.8848,89.25398504,,0,77.41936,,14 / 14,4837,2018-04-16 20:54:23:908
-1.218686,-9.718362,0.234639,-1.096443,-9.739404,0.334294,0.042151,-0.074957,-0.045477,-0.009774,0.208916,-0.002443,0,29.2,57.8,12.1,229.0587,83.2875,73.0441,0,1010.1838,40.31308,30.445688,-84.30108,273.8848,89.25398504,,0,77.41936,,14 / 14,4937,2018-04-16 20:54:24:008
-0.967287,-9.694419,0.339987,-1.134937,-9.736962,0.271465,0.042151,-0.074957,-0.045477,-0.009774,0.208916,-0.002443,0,29.2,57.6,12.4,225.1348,83.1658,76.5482,0,1010.1838,40.3555,30.445688,-84.30108,273.8848,89.25398504,,0,77.41936,,14 / 14,5038,2018-04-16 20:54:24:109
-0.665608,-9.567522,0.043097,-1.126164,-9.739656,0.202307,0.016103,0.031919,-0.014522,-0.047647,0.156382,-0.003665,0,29.2,57.6,12.4,225.1348,83.1658,76.5482,0,1010.1963,40.3555,30.445688,-84.30108,273.8848,89.25398504,,0,77.41936,,14 / 14,5138,2018-04-16 20:54:24:209
-1.029538,-9.771035,-0.028731,-1.132204,-9.740421,0.111301,0.100495,-0.031077,-0.190407,-0.053756,0.058643,0.023213,0,29.7,57.5,11.6,219.9254,83.2997,79.8159,0,1010.1963,40.3555,30.445688,-84.30108,273.8848,89.25398504,,0,77.41936,,14 / 14,5237,2018-04-16 20:54:24:308
-1.070241,-9.751882,0.057463,-1.132204,-9.740421,0.111301,0.283723,0.031216,-0.032589,-0.11973,-0.00733,0.052534,0,30,57.3,11.8,214.219,83.3381,84.3856,0,1010.1379,41.70239,30.445688,-84.30108,273.8848,89.25398504,,0,77.41936,,14 / 14,5338,2018-04-16 20:54:24:409
-0.620117,-9.708784,-0.251399,-1.145507,-9.739429,-0.038787,0.155236,-0.053293,-0.138871,-0.095295,-0.13439,0.085521,0,29.9,57.2,12.9,206.9552,83.2881,91.9393,0,1010.1379,41.70239,30.445688,-84.30108,273.8848,89.25398504,,0,77.41936,,14 / 14,5437,2018-04-16 20:54:24:508
-1.336005,-9.711179,0.028731,-1.099796,-9.743154,-0.17712,-0.216596,0.028591,0.260918,-0.045204,-0.383623,0.052534,0,29.6,57,14.4,199.7849,83.4775,99.1488,0,1010.1577,41.70239,30.445688,-84.30108,273.8848,89.25398504,,0,77.41936,,14 / 14,5538,2018-04-16 20:54:24:609
-2.317658,-10.506078,-0.689551,-1.153823,-9.735939,-0.223944,-0.216596,0.028591,0.260918,-0.045204,-0.383623,0.052534,0,29.7,56.8,13.9,199.7849,83.4775,99.1488,0,1010.1577,41.70239,30.445688,-84.30108,273.8848,89.25398504,,0,77.41936,,14 / 14,5638,2018-04-16 20:54:24:709
-2.552297,-9.598648,-1.194743,-1.254037,-9.720037,-0.344016,-0.465387,-0.696185,-0.328997,-0.151495,-0.736703,0.085521,0,29.7,56.4,12.8,190.5674,82.3801,105.3404,0,1010.1863,42.26033,30.445686,-84.301056,261.7335,89.25398504,,0,77.41936,,15 / 15,5737,2018-04-16 20:54:24:808
-0.7111,-9.136553,-0.095771,-1.279493,-9.700525,-0.657961,0.413116,0.831607,0.135073,-0.411723,-0.722043,-0.004887,0,29.5,56.2,11.9,190.5674,82.3801,105.3404,0,1010.1863,42.26033,30.445686,-84.301056,261.7335,89.25398504,,0,77.41936,,15 / 15,5837,2018-04-16 20:54:24:908
-1.86514,-8.329682,0.339987,-1.279493,-9.700525,-0.657961,-1.060495,1.364826,1.315152,0.102625,-0.580322,-0.454484,0,29.5,56.2,11.9,190.5674,82.3801,105.3404,0,1010.1909,42.26033,30.445686,-84.301056,261.7335,89.25398504,,0,77.41936,,15 / 15,5938,2018-04-16 20:54:25:009
-3.46691,-10.082292,-0.047885,-1.053782,-9.74286,-0.369277,-0.151884,-2.450779,-0.400364,0.294437,-0.168599,-0.177151,0,28.9,56.7,11,171.0617,81.5635,117.2139,0,1010.1909,40.69885,30.445686,-84.301056,261.7335,89.25398504,,0,77.41936,,15 / 15,6038,2018-04-16 20:54:25:109
-1.905843,-9.407105,-0.754197,-1.183562,-9.734925,0.015933,0.997208,-0.316161,-0.332367,0.194255,-0.300546,-0.200364,0,27.7,57.5,9.6,180.4432,83.4619,109.312,0,1010.196,40.69885,30.445686,-84.301056,261.7335,89.25398504,,0,77.41936,,15 / 15,6137,2018-04-16 20:54:25:208
0.730254,-9.668081,0.648849,-0.992851,-9.754605,0.17884,0.997208,-0.316161,-0.332367,0.194255,-0.300546,-0.200364,0,26.6,58,7.7,203.0091,83.0674,89.2288,0,1010.196,40.69885,30.445686,-84.301056,261.7335,89.25398504,,0,77.41936,,15 / 15,6238,2018-04-16 20:54:25:309
-0.359141,-9.60583,0.421392,-0.706141,-9.778882,0.211737,1.242066,0.259867,-0.32022,0.042761,-0.524122,-0.191812,0,25.8,58.2,5.4,207.1237,84.0954,79.7889,0,1010.2002,41.02138,30.445686,-84.301056,261.7335,89.25398504,,0,77.41936,,15 / 15,6338,2018-04-16 20:54:25:409
-0.854756,-9.45978,0.39745,-0.565385,-9.786922,0.258125,0.392711,0.316045,0.144024,0.052534,-0.351858,-0.118508,0,25,58.5,2.5,208.413,85.6888,73.3086,0,1010.2002,41.02138,30.44569,-84.30103,245.3018,89.25398504,,0,51.612904,,15 / 15,6438,2018-04-16 20:54:25:509
0.090982,-10.000886,-0.555472,-0.565385,-9.786922,0.258125,0.662424,-0.215115,-0.842014,0.023213,-0.085521,0.025656,0,25,58.5,2.5,208.413,85.6888,73.3086,0,1010.2183,41.02138,30.44569,-84.30103,245.3018,89.25398504,,0,51.612904,,15 / 15,6537,2018-04-16 20:54:25:608
0.06704,-10.041589,-0.189148,-0.5651,-9.787021,0.254782,-0.038643,0.290969,-0.593576,-0.020769,-0.039095,0.094073,0,24.4,58.7,0.4,208.9093,86.3663,65.4611,0,1010.2183,44.56502,30.44569,-84.30103,245.3018,89.25398504,,0,51.612904,,15 / 15,6637,2018-04-16 20:54:25:708
0.952921,-10.00328,0.471672,-0.384209,-9.799092,0.012218,-0.540599,-0.037095,-0.146078,0.014661,-0.295659,-0.010996,0,23.4,58.5,0.9,211.6947,86.376,65.7312,0,1010.2129,44.56502,30.44569,-84.30103,245.3018,89.25398504,,0,51.612904,,15 / 15,6738,2018-04-16 20:54:25:809
-1.46769,-9.75667,-0.339987,-0.250522,-9.803408,0.022843,-0.540599,-0.037095,-0.146078,0.014661,-0.295659,-0.010996,0,22.9,58.1,2.1,187.537,87.7535,88.1786,0,1010.2129,44.56502,30.44569,-84.30103,245.3018,89.25398504,,0,51.612904,,15 / 15,6837,2018-04-16 20:54:25:908
-1.908237,-9.282603,0.335198,-0.317879,-9.801293,0.059287,0.198893,-0.016335,0.580655,0.014661,-0.102625,-0.051313,0,22.6,57.9,2,190.8801,88.5299,84.7901,0,1010.1826,44.56502,30.44569,-84.30103,245.3018,89.25398504,,0,51.612904,,15 / 15,6938,2018-04-16 20:54:26:009
-1.482056,-9.804555,0.548289,-0.781791,-9.767154,0.401897,-0.041583,-0.241863,0.05032,0.207694,-0.080634,0.130725,0,22.6,57.8,1.4,194.232,88.1103,79.4352,0,1010.1826,41.4941,30.44569,-84.30103,245.3018,89.25398504,,0,51.612904,,15 / 15,7037,2018-04-16 20:54:26:108
-0.416604,-9.847652,0.579415,-0.781791,-9.767154,0.401897,0.088971,-0.058608,-0.171921,0.034208,0.158825,0.11973,0,22.6,57.8,1.4,194.232,88.1103,79.4352,0,1010.1733,41.4941,30.44569,-84.30103,245.3018,89.25398504,,0,51.612904,,15 / 15,7137,2018-04-16 20:54:26:208
-0.859545,-9.665688,0.718282,-0.920461,-9.751338,0.483998,-0.043106,0.009446,0.171356,0.042761,0.111177,0.034208,0,22.8,57.4,0.6,217.6023,84.8572,62.7936,0,1010.1733,41.4941,30.44569,-84.30103,245.3018,89.25398504,,0,51.612904,,15 / 15,7238,2018-04-16 20:54:26:309
-0.440547,-9.830893,0.701523,-0.930984,-9.747334,0.541126,0.172223,0.020921,-0.241012,-0.001222,-0.169821,0.019548,0,23.3,56.9,0.3,217.014,83.9126,62.2637,0,1010.1768,41.1913,30.44569,-84.30103,245.3018,89.25398504,,0,51.612904,,15 / 15,7338,2018-04-16 20:54:26:409
-1.616135,-9.900327,0.608146,-0.88411,-9.751844,0.538418,0.172223,0.020921,-0.241012,-0.001222,-0.169821,0.019548,0,23.7,56.6,0.3,220.0157,83.6959,59.8331,0,1010.1768,41.1913,30.445696,-84.301,222.5003,89.25398504,,0,51.612904,,15 / 15,7437,2018-04-16 20:54:26:508
-1.443748,-9.601042,0.833208,-1.093235,-9.731611,0.520484,-0.45235,0.141171,0.30728,-0.051313,0.133169,0.050091,0,23.9,56.5,0.3,220.9871,83.9408,58.6588,0,1010.1521,41.1913,30.445696,-84.301,222.5003,89.25398504,,0,51.612904,,15 / 15,7537,2018-04-16 20:54:26:608
-1.398256,-9.505271,0.464489,-1.128297,-9.728122,0.510391,0.117413,-0.032568,-0.154614,0.037874,0.122173,0.019548,0,24.1,56.5,0.4,215.4955,82.9077,64.5411,0,1010.1521,42.28809,30.445696,-84.301,222.5003,89.25398504,,0,51.612904,,15 / 15,7637,2018-04-16 20:54:26:708
-1.386285,-9.500483,0.548289,-1.128297,-9.728122,0.510391,-0.469105,0.090528,0.323415,0.052534,0.158825,0.041539,0,24.1,56.5,0.4,215.4955,82.9077,64.5411,0,1010.1458,42.28809,30.445696,-84.301,222.5003,89.25398504,,0,51.612904,,15 / 15,7738,2018-04-16 20:54:26:809
-1.268966,-9.730332,0.521952,-1.245102,-9.710862,0.564701,0.01023,-0.026488,-0.085517,0.074526,0.237016,0.040317,0,24.6,56.3,0,213.5734,82.7454,65.6601,0,1010.1458,42.28809,30.445696,-84.301,222.5003,89.25398504,,0,51.612904,,15 / 15,7838,2018-04-16 20:54:26:909
-0.833208,-9.79019,0.344776,-1.305342,-9.699521,0.620763,0.174155,-0.08455,-0.527156,0.041539,-0.083078,0.008552,0,25.8,56,-0.7,211.4831,81.9861,65.6039,0,1010.1487,43.67365,30.445696,-84.301,222.5003,89.25398504,,0,51.612904,,15 / 15,7938,2018-04-16 20:54:27:009
-1.419805,-9.651321,0.675186,-1.234022,-9.710304,0.59763,0.174155,-0.08455,-0.527156,0.041539,-0.083078,0.008552,0,26.7,55.7,-0.9,213.284,81.5241,64.5663,0,1010.1487,43.67365,30.445696,-84.301,222.5003,89.25398504,,0,51.612904,,15 / 15,8038,2018-04-16 20:54:27:109
-1.498816,-9.763853,0.89067,-1.2541,-9.706706,0.614077,-0.014022,0.025306,0.273113,0.001222,-0.029322,0.014661,0,26.2,55.6,0,216.4543,81.9628,64.1594,0,1010.157,43.67365,30.445696,-84.301,222.5003,89.25398504,,0,51.612904,,15 / 15,8138,2018-04-16 20:54:27:209
-1.273754,-9.613013,0.691945,-1.316316,-9.694538,0.673257,0.020219,0.086248,0.043843,0.045204,0.032987,0.0281,0,25.8,55.5,0.8,216.4543,81.9628,64.1594,0,1010.157,43.67365,30.445696,-84.301,222.5003,89.25398504,,0,51.612904,,15 / 15,8237,2018-04-16 20:54:27:308
-1.132492,-9.593859,0.725465,-1.316316,-9.694538,0.673257,0.216197,0.069137,0.019979,-0.003665,-0.043982,0.019548,0,25.8,55.5,0.8,216.4543,81.9628,64.1594,0,1010.1638,44.31575,30.445696,-84.301,222.5003,89.25398504,,0,51.612904,,15 / 15,8338,2018-04-16 20:54:27:409
-1.412622,-9.586677,0.933767,-1.314888,-9.694285,0.679693,-0.191992,-0.008269,-0.051563,0.036652,-0.012217,0.006109,0,25.6,55.3,1.3,221.9935,81.3287,62.9116,0,1010.1638,44.31575,30.445696,-84.301,222.5003,89.25398504,,0,51.612904,,15 / 15,8437,2018-04-16 20:54:27:508
-1.371919,-9.498088,0.864333,-1.339307,-9.687486,0.727289,-0.016036,0.18705,0.136499,0.036652,-0.012217,0.006109,0,25.6,55.2,1.3,221.9935,81.3287,62.9116,0,1010.1565,44.31575,30.445704,-84.30099,196.5334,89.25398504,,0,38.70968,,14 / 15,8538,2018-04-16 20:54:27:609
-1.307274,-9.641745,0.684763,-1.371366,-9.681497,0.746858,-0.016036,0.18705,0.136499,0.058643,0.040317,0.012217,0,25.6,55.2,1,224.4328,81.0595,61.4965,0,1010.1565,42.08452,30.445704,-84.30099,196.5334,89.25398504,,0,38.70968,,14 / 15,8638,2018-04-16 20:54:27:709
-1.51797,-9.634562,0.833208,-1.387487,-9.676061,0.786575,0.031825,0.051644,0.017626,0.074526,0.061087,0.014661,0,25.7,55.2,0.9,224.4328,81.0595,61.4965,0,1010.1594,42.08452,30.445704,-84.30099,196.5334,89.25398504,,0,38.70968,,14 / 15,8737,2018-04-16 20:54:27:808
-1.206714,-9.797373,0.548289,-1.406282,-9.668967,0.838752,0.04116,0.088469,-0.269464,0.054978,0.045204,0,0,25.8,54.9,1.1,226.7391,80.6399,60.4508,0,1010.1594,42.08452,30.445704,-84.30099,196.5334,89.25398504,,0,38.70968,,14 / 15,8839,2018-04-16 20:54:27:910
-1.60177,-9.462174,1.065452,-1.406282,-9.668967,0.838752,0.023773,-0.213034,0.145555,0.054978,0.045204,0,0,26,54.8,0.8,228.9908,80.3883,59.1868,0,1010.1741,40.4251,30.445704,-84.30099,196.5334,89.25398504,,0,38.70968,,14 / 15,8937,2018-04-16 20:54:28:008
-1.369525,-9.751882,1.070241,-1.379136,-9.671821,0.850796,0.012963,-0.083047,0.191392,0.054978,-0.075747,0.034208,0,25.9,54.6,0.5,229.8861,80.4888,58.3293,0,1010.1741,40.4251,30.445704,-84.30099,196.5334,89.25398504,,0,38.70968,,14 / 15,9039,2018-04-16 20:54:28:110
-1.438959,-9.495694,1.144463,-1.379265,-9.66678,0.906158,0.011918,0.059734,-0.060361,0.019548,0,0.010996,0,25.9,54.5,0.4,229.8861,80.4888,58.3293,0,1010.1599,40.4251,30.445704,-84.30099,196.5334,89.25398504,,0,38.70968,,14 / 15,9139,2018-04-16 20:54:28:210
-1.505999,-9.703996,1.115732,-1.398475,-9.656172,0.98613,0.011918,0.059734,-0.060361,0.051313,0.010996,0.021991,0,25.9,54.5,0,232.9156,79.9508,54.8105,0,1010.1599,42.58942,30.445704,-84.30099,196.5334,89.25398504,,0,38.70968,,14 / 15,9238,2018-04-16 20:54:28:309
-1.309668,-9.696813,1.235446,-1.440499,-9.644649,1.037188,-0.030121,0.136143,0.102762,0.030543,-0.095295,0.03543,0,25.9,54.5,0,232.9156,79.9508,54.8105,0,1010.1685,42.58942,30.445704,-84.30099,196.5334,89.25398504,,0,38.70968,,14 / 15,9338,2018-04-16 20:54:28:409
-1.553884,-9.526819,1.297697,-1.440499,-9.644649,1.037188,-0.1225,-0.0146,0.032078,0.030543,-0.095295,0.03543,0,25.9,54.4,0,234.1506,79.5717,54.2454,0,1010.1685,42.58942,30.445713,-84.30098,176.7596,89.25398504,,0,38.70968,,14 / 15,9439,2018-04-16 20:54:28:510
-1.53473,-9.464568,1.067847,-1.452465,-9.639123,1.071374,-0.075391,0.172889,-0.009067,-0.008552,-0.064752,0.014661,0,26,54.2,0,234.1506,79.5717,54.2454,0,1010.1636,42.58942,30.445713,-84.30098,176.7596,89.25398504,,0,38.70968,,14 / 15,9537,2018-04-16 20:54:28:608
-1.546701,-9.682447,0.938556,-1.465503,-9.636734,1.075017,0.121602,-0.045691,-0.205148,-0.004887,-0.031765,0.015882,0,26,54.1,-0.3,235.4398,79.3193,53.7382,0,1010.1636,41.77232,30.445713,-84.30098,176.7596,89.25398504,,0,38.70968,,14 / 15,9637,2018-04-16 20:54:28:708
-1.472479,-9.557945,1.022355,-1.484223,-9.635595,1.05946,-0.128102,0.030555,0.068397,-0.004887,-0.037874,-0.006109,0,26.2,54.1,-1.2,231.613,79.2834,54.4802,0,1010.1633,41.77232,30.445713,-84.30098,176.7596,89.25398504,,0,38.70968,,14 / 15,9738,2018-04-16 20:54:28:809
-1.625713,-9.498088,1.115732,-1.487681,-9.635025,1.059812,-0.128102,0.030555,0.068397,-0.004887,-0.037874,-0.006109,0,26.5,54,-2.1,231.613,79.2834,54.4802,0,1010.1633,41.77232,30.445713,-84.30098,176.7596,89.25398504,,0,38.70968,,14 / 15,9838,2018-04-16 20:54:28:909
-1.388679,-9.653716,0.90743,-1.490102,-9.634723,1.059058,0.10621,-0.020875,-0.162034,0.00733,-0.025656,0.002443,0,27.2,54,-3.1,224.9235,79.2654,54.5342,0,1010.1709,40.91939,30.445713,-84.30098,176.7596,89.25398504,,0,38.70968,,14 / 15,9937,2018-04-16 20:54:29:008
-1.55149,-9.481328,1.182772,-1.505269,-9.630848,1.072816,-0.130959,0.11713,0.126062,0.012217,0.008552,0,0,26.9,53.9,-2.8,224.8555,79.2563,54.5975,0,1010.1709,40.91939,30.445713,-84.30098,176.7596,89.25398504,,0,38.70968,,14 / 15,10038,2018-04-16 20:54:29:109
-1.596981,-9.72315,1.072635,-1.505269,-9.630848,1.072816,0.084108,0.137917,0.046918,-0.018326,0.029322,0.006109,0,26.9,53.9,-2.8,224.8555,79.2563,54.5975,0,1010.1699,40.91939,30.445713,-84.30098,176.7596,89.25398504,,0,38.70968,,14 / 15,10138,2018-04-16 20:54:29:209
-1.592193,-9.567522,1.201926,-1.51989,-9.628649,1.072042,-0.184883,0.096356,0.013642,-0.015882,0.047647,-0.002443,0,26.2,53.8,-1.7,228.8716,79.1353,54.5223,0,1010.1699,40.76863,30.445713,-84.30098,176.7596,89.25398504,,0,38.70968,,14 / 15,10238,2018-04-16 20:54:29:309
-1.494027,-9.536397,1.079818,-1.53452,-9.626911,1.066752,-0.184883,0.096356,0.013642,-0.015882,0.047647,-0.002443,0,26.1,53.7,-1.5,231.7118,79.0671,54.8031,0,1010.1868,40.76863,30.445713,-84.30098,176.7596,89.25398504,,0,38.70968,,14 / 15,10338,2018-04-16 20:54:29:409
-1.738243,-9.574705,1.031933,-1.524793,-9.632034,1.033967,0.066805,0.099745,-0.03639,-0.024435,0.031765,-0.009774,0,26.9,53.7,-2.3,227.5553,79.0138,55.1941,0,1010.1868,40.76863,30.445713,-84.30098,176.7596,89.25398504,,0,38.70968,,14 / 15,10437,2018-04-16 20:54:29:508
-1.395862,-9.70639,0.754197,-1.550173,-9.631475,1.00087,-0.083158,0.199904,0.186716,-0.040317,0.043982,0.004887,0,27.5,53.7,-2.9,222.836,79.1719,55.8587,0,1010.1721,40.25636,30.445724,-84.30099,161.6346,89.25398504,,0,38.70968,,14 / 15,10538,2018-04-16 20:54:29:609
-1.379102,-9.601042,0.658426,-1.542426,-9.640213,0.92588,-0.034596,0.011747,-0.192054,-0.06353,-0.015882,0.001222,0,27.1,53.8,-2,224.5231,79.1547,57.1517,0,1010.1721,40.25636,30.445724,-84.30099,161.6346,89.25398504,,0,38.70968,,14 / 15,10638,2018-04-16 20:54:29:709
-1.405439,-9.72315,0.785322,-1.542426,-9.640213,0.92588,0.119882,-0.076258,-0.098381,-0.062308,-0.045204,-0.024435,0,27.1,53.8,-2,224.5231,79.1547,57.1517,0,1010.1709,40.25636,30.445724,-84.30099,161.6346,89.25398504,,0,38.70968,,14 / 15,10738,2018-04-16 20:54:29:809
-1.745426,-9.644139,1.022355,-1.494318,-9.655044,0.846795,-0.347907,0.061235,0.203716,-0.086743,0.083078,-0.075747,0,26.4,53.9,-0.9,225.0236,79.4295,59.0247,0,1010.1709,40.25636,30.445724,-84.30099,161.6346,89.25398504,,0,38.70968,,14 / 15,10837,2018-04-16 20:54:29:908
-1.996825,-9.277815,1.048692,-1.482025,-9.661611,0.791623,-0.347907,0.061235,0.203716,-0.086743,0.083078,-0.075747,0,25.9,54.1,0.5,227.9943,79.913,60.4608,0,1010.1692,43.31229,30.445724,-84.30099,161.6346,89.25398504,,0,38.70968,,14 / 15,10938,2018-04-16 20:54:30:009
-0.72786,-9.701602,0.548289,-1.48239,-9.660996,0.798684,0.475794,0.189952,0.281876,-0.046426,0.194255,-0.036652,0,25.9,54.3,1,225.8867,80.113,61.685,0,1010.1692,43.31229,30.445724,-84.30099,161.6346,89.25398504,,0,38.70968,,14 / 15,11038,2018-04-16 20:54:30:109
-1.687964,-9.857229,0.706311,-1.191394,-9.718349,0.551563,-0.078041,-0.447023,-0.398431,-0.202807,0.072082,-0.172264,0,25.7,54.6,1.7,219.9901,82.3064,65.1579,0,1010.1711,43.31229,30.445724,-84.30099,161.6346,89.25398504,,0,38.70968,,14 / 15,11138,2018-04-16 20:54:30:209
-0.696734,-9.404712,-0.371113,-1.17206,-9.730954,0.32391,0.500217,0.319325,-0.795768,-0.168599,-0.186925,-0.048869,0,25.4,55.1,2.3,207.4056,82.8772,74.5513,0,1010.1711,49.77223,30.445724,-84.30099,161.6346,89.25398504,,0,38.70968,,14 / 15,11237,2018-04-16 20:54:30:308
-0.67758,-9.569917,-0.004789,-1.17206,-9.730954,0.32391,0.630856,0.124261,-0.150274,-0.168599,-0.186925,-0.048869,0,25.4,55.1,2.3,207.4056,82.8772,74.5513,0,1010.1602,49.77223,30.445724,-84.30099,161.6346,89.25398504,,0,38.70968,,14 / 15,11338,2018-04-16 20:54:30:409
-1.276148,-9.744699,-0.088588,-1.092681,-9.74369,0.191728,-0.442565,0.038661,-0.338266,-0.004887,-0.018326,-0.050091,0,25.1,55.8,2.6,202.4413,83.5045,80.0479,0,1010.1602,49.77223,30.445724,-84.30099,161.6346,89.25398504,,0,38.70968,,14 / 15,11438,2018-04-16 20:54:30:509
-0.900247,-9.845258,0.59378,-1.047648,-9.749113,0.16541,-0.409125,0.089636,-0.147782,-0.00733,0.219911,-0.045204,0,24.7,56.3,3.1,202.4413,83.5045,80.0479,0,1010.1555,47.35471,30.445732,-84.30099,147.7895,89.25398504,,0,38.70968,,14 / 15,11538,2018-04-16 20:54:30:609
-1.077424,-9.481328,0.181965,-0.971155,-9.757569,0.128486,-0.409125,0.089636,-0.147782,-0.069639,0.245568,-0.008552,0,24.6,56.4,3.4,200.8393,83.7911,81.0278,0,1010.1555,47.35471,30.445732,-84.30099,147.7895,89.25398504,,0,38.70968,,14 / 15,11637,2018-04-16 20:54:30:708
-1.077424,-9.481328,0.181965,-0.986201,-9.756086,0.126606,-0.259082,0.224378,0.056749,0.024435,0.138056,0.026878,0,24.8,56.4,4.2,201.3387,84.2669,82.4634,0,1010.165,47.35471,30.445732,-84.30099,147.7895,89.25398504,,0,38.70968,,14 / 15,11738,2018-04-16 20:54:30:809
-0.541106,-9.917087,-0.102954,-0.986201,-9.756086,0.126606,-0.427915,-0.277103,-0.044383,0.024435,0.138056,0.026878,0,24.8,56.4,4.2,201.3387,84.2669,82.4634,0,1010.165,45.16681,30.445732,-84.30099,147.7895,89.25398504,,0,38.70968,,14 / 15,11838,2018-04-16 20:54:30:909
-1.027144,-9.77343,-0.138868,-0.944535,-9.760937,0.046086,0.196047,0.37676,-0.111491,-0.125838,0.167377,0.00733,0,25.2,56.4,4.8,203.9201,84.1808,82.6845,0,1010.1829,45.16681,30.445732,-84.30099,147.7895,89.25398504,,0,38.70968,,14 / 15,11938,2018-04-16 20:54:31:009
-0.682368,-9.816526,-0.445335,-0.937673,-9.761338,0.08302,0.268398,-0.157385,-0.571889,0.149051,0.014661,0.048869,0,25.6,56.4,5.6,199.8076,84.4664,87.2066,0,1010.1829,45.16681,30.445732,-84.30099,147.7895,89.25398504,,0,38.70968,,14 / 15,12038,2018-04-16 20:54:31:109
-1.039115,-9.732727,-0.026337,-0.926259,-9.762607,0.057726,-0.140013,0.032593,-0.028756,-0.003665,-0.039095,0.006109,0,25.9,56.4,5.9,202.5894,84.4917,84.9403,0,1010.1855,45.16681,30.445732,-84.30099,147.7895,89.25398504,,0,38.70968,,14 / 15,12137,2018-04-16 20:54:31:208
-1.125309,-9.648928,0.193936,-0.899758,-9.765244,-0.022662,-0.140013,0.032593,-0.028756,-0.032987,-0.001222,0.00733,0,26,56.3,6,200.6676,84.5697,86.4339,0,1010.1855,47.19672,30.445732,-84.30099,147.7895,89.25398504,,0,38.70968,,14 / 15,12237,2018-04-16 20:54:31:308
-0.950527,-9.749487,-0.009577,-0.94161,-9.761325,-0.001498,-0.208865,0.1696,0.325978,-0.001222,0.004887,0.015882,0,26,56.2,5.9,194.3462,84.7341,91.4428,0,1010.1865,47.19672,30.445732,-84.30099,147.7895,89.25398504,,0,38.70968,,14 / 15,12338,2018-04-16 20:54:31:409
-1.261783,-9.62259,0.040703,-0.939645,-9.761506,-0.012665,0.236698,-0.101759,0.13569,-0.080634,-0.166155,-0.012217,0,26,56.1,6.1,196.1981,84.4901,90.0911,0,1010.1865,47.19672,30.445732,-84.30099,147.7895,89.25398504,,0,38.70968,,14 / 15,12437,2018-04-16 20:54:31:508
-1.151646,-9.565128,-0.114925,-0.939645,-9.761506,-0.012665,-0.276452,0.211937,0.05558,-0.080634,-0.166155,-0.012217,0,26,56.1,6.1,196.1981,84.4901,90.0911,0,1010.2031,40.10297,30.445738,-84.30099,136.1609,89.25398504,,0,25.806452,,14 / 15,12538,2018-04-16 20:54:31:609
-0.679974,-9.768641,-0.464489,-0.972261,-9.75831,-0.012077,0.18692,-0.005815,-0.354651,0.057421,-0.001222,0.009774,0,25.8,56.1,5.8,195.3405,84.5011,90.7722,0,1010.2031,40.10297,30.445738,-84.30099,136.1609,89.25398504,,0,25.806452,,14 / 15,12638,2018-04-16 20:54:31:709
-0.936161,-10.048771,0.337593,-0.985566,-9.756971,0.014999,-0.019568,-0.285091,0.361805,0.078191,-0.004887,0.008552,0,25.5,56.1,5.5,195.5561,84.3097,90.7117,0,1010.2095,40.10297,30.445738,-84.30099,136.1609,89.25398504,,0,25.806452,,14 / 15,12738,2018-04-16 20:54:31:809
-1.525153,-9.555551,0.304073,-0.873467,-9.767477,-0.059633,-0.019568,-0.285091,0.361805,-0.102625,-0.039095,-0.081856,0,25.4,56,5.4,195.6792,84.2314,89.1281,0,1010.2095,41.11057,30.445738,-84.30099,136.1609,89.25398504,,0,25.806452,,14 / 15,12838,2018-04-16 20:54:31:909
-0.943344,-9.522031,0.160416,-0.980615,-9.757468,-0.014202,-0.544189,0.273352,0.348732,0.03543,0.153938,-0.009774,0,25.6,56.1,5.7,191.2228,84.878,93.9056,0,1010.2068,41.11057,30.445738,-84.30099,136.1609,89.25398504,,0,25.806452,,14 / 15,12938,2018-04-16 20:54:32:009
-0.826025,-9.811738,-0.026337,-0.980615,-9.757468,-0.014202,0.32666,-0.146707,-0.134878,0.03543,0.153938,-0.009774,0,25.6,56.1,5.7,191.2228,84.878,93.9056,0,1010.2068,41.11057,30.445738,-84.30099,136.1609,89.25398504,,0,25.806452,,14 / 15,13037,2018-04-16 20:54:32:108
-0.758985,-9.636956,0.023943,-0.97579,-9.757899,0.036738,0.138038,0.121875,0.004998,-0.019548,0.059865,-0.009774,0,25.6,56.2,5.9,195.4436,84.2605,90.8298,0,1010.2104,39.41361,30.445738,-84.30099,136.1609,89.25398504,,0,25.806452,,14 / 15,13137,2018-04-16 20:54:32:208
-0.888276,-9.763853,-0.043097,-0.920429,-9.763316,0.019589,0.028458,-1.85E-04,-0.065256,0.008552,-0.029322,-0.001222,0,25.6,56.2,6.2,199.1776,84.2854,87.8438,0,1010.2104,39.41361,30.445738,-84.30099,136.1609,89.25398504,,0,25.806452,,14 / 15,13238,2018-04-16 20:54:32:309
-1.127703,-10.132571,0.392661,-0.913346,-9.763992,0.014036,0.028458,-1.85E-04,-0.065256,-0.018326,-0.017104,-0.00733,0,25.6,56.2,6.2,197.7281,84.6131,88.7808,0,1010.1924,39.41361,30.445738,-84.30099,136.1609,89.25398504,,0,25.806452,,14 / 15,13338,2018-04-16 20:54:32:409
-0.917007,-9.37598,-0.064645,-0.912455,-9.764017,-0.037621,-0.318851,0.169001,0.332661,-0.043982,-0.020769,0.006109,0,25.5,56.2,6.3,197.275,84.6554,89.1195,0,1010.1924,39.41361,30.445738,-84.30099,136.1609,89.25398504,,0,25.806452,,14 / 15,13437,2018-04-16 20:54:32:508
-1.151646,-9.876384,-0.428575,-0.932454,-9.762184,-0.015712,0.055931,0.00905,-0.359433,0.019548,0.012217,0,0,25.4,56.2,6.4,194.0082,84.6567,92.361,0,1010.187,39.85016,30.445738,-84.30099,136.1609,89.25398504,,0,25.806452,,14 / 15,13538,2018-04-16 20:54:32:609
-1.424594,-9.653716,0.282524,-0.932454,-9.762184,-0.015712,-0.254921,-0.022248,0.179174,0.019548,0.012217,0,0,25.4,56.2,6.4,194.0082,84.6567,92.361,0,1010.187,39.85016,30.445738,-84.30099,136.1609,89.25398504,,0,25.806452,,14 / 15,13638,2018-04-16 20:54:32:709
-0.488432,-9.555551,-0.337593,-0.966819,-9.758202,-0.113686,0.488998,0.20174,-0.238063,-0.024435,0.13439,0.001222,0,25.4,56.2,6.3,195.841,84.5431,90.9654,0,1010.1968,39.85016,30.445738,-84.30099,136.1609,89.25398504,,0,25.806452,,14 / 15,13738,2018-04-16 20:54:32:809
-1.087001,-9.905115,-0.553077,-0.9558,-9.759559,-0.085843,-0.200512,-0.115392,-0.286488,0.048869,-0.097738,0.034208,0,25.5,56,6.1,187.9858,84.303,96.7065,0,1010.1968,40.49547,30.445738,-84.30099,136.1609,89.25398504,,0,25.806452,,14 / 15,13838,2018-04-16 20:54:32:909
-0.967287,-9.675264,-0.203513,-0.943125,-9.759627,-0.173674,-0.200512,-0.115392,-0.286488,-0.047647,-0.00733,0,0,25.5,55.9,6,189.9415,84.3842,95.1321,0,1010.1965,40.49547,30.445738,-84.30099,136.1609,89.25398504,,0,25.806452,,14 / 15,13938,2018-04-16 20:54:33:009
-1.039115,-9.814133,0.167599,-0.96066,-9.758035,-0.167307,-0.220548,0.196001,0.574861,0.075747,0.090408,-0.019548,0,25.6,55.8,6,189.9415,84.3842,95.1321,0,1010.1965,40.49547,30.445738,-84.30099,136.1609,89.25398504,,0,25.806452,,14 / 15,14038,2018-04-16 20:54:33:109
-0.668003,-9.878778,-0.253793,-1.010596,-9.753984,-0.091947,-0.135037,-0.242991,-0.064512,0.001222,0.039095,-0.008552,0,25.5,55.7,6.2,183.9606,84.2934,99.8795,0,1010.1797,39.04518,30.445738,-84.30099,136.1609,89.25398504,,0,25.806452,,14 / 15,14138,2018-04-16 20:54:33:209
-0.962498,-9.787795,-0.136474,-0.938196,-9.760785,-0.129878,0.009006,-0.029993,-0.029262,-0.064752,-0.058643,-0.062308,0,25.5,55.7,6.2,190.013,84.0605,95.1986,0,1010.1797,39.04518,30.445738,-84.30099,136.1609,89.25398504,,0,25.806452,,14 / 15,14238,2018-04-16 20:54:33:309
-1.256994,-9.785401,-0.095771,-0.938196,-9.760785,-0.129878,-0.403993,0.153437,0.381019,-0.064752,-0.058643,-0.062308,0,25.5,55.7,6.3,190.013,84.0605,95.1986,0,1010.1714,39.04518,30.445738,-84.30099,136.1609,89.25398504,,0,25.806452,,14 / 15,14338,2018-04-16 20:54:33:409
-0.969681,-9.593859,0.038308,-0.94329,-9.759122,-0.199375,0.054318,0.220306,0.178982,-0.078191,0.112399,-0.037874,0,25.3,55.8,6.5,184.7334,84.3579,101.9344,0,1010.1714,40.31336,30.445738,-84.30099,136.1609,89.25398504,,0,25.806452,,14 / 15,14438,2018-04-16 20:54:33:509
-0.689551,-9.660899,-0.10056,-0.936684,-9.759783,-0.198541,0.106734,-0.002642,-0.01566,0.046426,0.07086,-0.002443,0,25.2,55.9,7,184.6822,84.3969,101.9674,0,1010.1697,40.31336,30.445732,-84.300995,119.224,89.25398504,,0,25.806452,,14 / 14,14538,2018-04-16 20:54:33:609
-0.821236,-9.780613,-0.234639,-0.919323,-9.762257,-0.152652,0.106734,-0.002642,-0.01566,0.006109,0.021991,-0.00733,0,25.2,55.9,7,184.6822,84.3969,101.9674,0,1010.1697,40.31336,30.445732,-84.300995,119.224,89.25398504,,0,25.806452,,14 / 14,14638,2018-04-16 20:54:33:709
-0.785322,-9.730332,-0.38069,-0.879823,-9.764662,-0.217467,0.142107,0.016902,-0.144402,-0.052534,-0.032987,-0.009774,0,25.1,55.7,7.4,187.8549,84.5471,99.4278,0,1010.1707,40.31336,30.445732,-84.300995,119.224,89.25398504,,0,25.806452,,14 / 14,14738,2018-04-16 20:54:33:809
-0.806871,-9.799767,-0.452518,-0.879823,-9.764662,-0.217467,-0.038528,-0.003668,-0.195189,-0.052534,-0.032987,-0.009774,0,25.1,55.7,7.2,182.2082,84.6973,103.8836,0,1010.1707,40.08582,30.445732,-84.300995,119.224,89.25398504,,0,25.806452,,14 / 14,14838,2018-04-16 20:54:33:909
-0.624906,-9.680053,-0.445335,-0.856419,-9.763429,-0.334896,0.036711,0.123773,-0.107861,-0.118508,-0.051313,-0.00733,0,25.1,55.7,7.3,172.8006,84.6195,111.3576,0,1010.1672,40.08582,30.445732,-84.300995,119.224,89.25398504,,0,25.806452,,14 / 14,14940,2018-04-16 20:54:34:011
-0.845179,-9.658504,-0.428575,-0.822465,-9.76274,-0.427321,0.032482,0.036873,-0.061926,-0.032987,-0.062308,-0.008552,0,25.1,56,7.6,167.793,84.5767,117.4546,0,1010.1672,40.08582,30.445732,-84.300995,119.224,89.25398504,,0,25.806452,,14 / 14,15038,2018-04-16 20:54:34:109
-0.804476,-9.725544,-0.562655,-0.821499,-9.762099,-0.443456,0.032482,0.036873,-0.061926,-0.00733,-0.03543,0.001222,0,25.1,56,7.6,167.793,84.5767,117.4546,0,1010.1741,40.14359,30.445732,-84.300995,119.224,89.25398504,,0,25.806452,,14 / 14,15138,2018-04-16 20:54:34:209
-0.866727,-9.73991,-0.215485,-0.821168,-9.761541,-0.456237,0.062313,0.083921,-1.23E-04,-0.010996,-0.06353,0.006109,0,24.9,55.9,7.6,166.6337,84.5374,118.3608,0,1010.1741,40.14359,30.445732,-84.300995,119.224,89.25398504,,0,25.806452,,14 / 14,15237,2018-04-16 20:54:34:308
-0.852362,-9.660899,-0.28013,-0.839234,-9.760129,-0.453284,-0.05979,0.081363,-0.084513,0.020769,-0.042761,0.015882,0,24.6,55.9,7.4,163.0594,84.5031,119.0564,0,1010.1821,40.14359,30.445732,-84.300995,119.224,89.25398504,,0,25.806452,,14 / 14,15338,2018-04-16 20:54:34:409
-0.885882,-9.682447,-0.325621,-0.839234,-9.760129,-0.453284,-0.087467,0.091763,-0.015081,0.020769,-0.042761,0.015882,0,24.6,55.8,7.3,163.8484,84.4184,118.3742,0,1010.1821,40.49184,30.445732,-84.300995,119.224,89.25398504,,0,25.806452,,14 / 14,15438,2018-04-16 20:54:34:509
-1.077424,-9.651321,-0.225062,-0.877329,-9.759279,-0.395812,-0.175084,0.108247,0.101267,0.079412,-0.054978,0.019548,0,24.9,55.8,6.8,168.99,84.3676,114.2828,0,1010.1885,40.49184,30.445724,-84.300995,115.7446,89.25398504,,0,19.35484,,14 / 14,15538,2018-04-16 20:54:34:609
-1.005595,-9.778218,-0.306467,-0.940829,-9.757985,-0.257926,-0.012724,-0.010348,-0.121139,0.095295,0.008552,0.037874,0,25.4,55.5,5.1,174.824,84.2908,105.3309,0,1010.1885,40.49184,30.445724,-84.300995,115.7446,89.25398504,,0,19.35484,,14 / 14,15638,2018-04-16 20:54:34:709
-0.984047,-9.754275,-0.239427,-0.989587,-9.754173,-0.216181,-0.012724,-0.010348,-0.121139,0.003665,-0.052534,0.021991,0,25.4,55.5,5.1,174.824,84.2908,105.3309,0,1010.1992,39.87288,30.445724,-84.300995,115.7446,89.25398504,,0,19.35484,,14 / 14,15738,2018-04-16 20:54:34:809
-1.23784,-9.715967,-0.196331,-1.006708,-9.752185,-0.226482,-0.055828,-0.008204,0.037058,-0.00733,0.006109,0.009774,0,25.8,55.3,3.7,175.408,84.0713,102.323,0,1010.1992,39.87288,30.445724,-84.300995,115.7446,89.25398504,,0,19.35484,,14 / 14,15838,2018-04-16 20:54:34:909
-1.101366,-9.79019,-0.251399,-1.033899,-9.750271,-0.182846,-0.121624,0.0389,0.115549,0.010996,-0.024435,0.001222,0,25.5,55.1,4.3,174.9238,83.9601,102.6789,0,1010.2031,39.87288,30.445724,-84.300995,115.7446,89.25398504,,0,19.35484,,14 / 14,15938,2018-04-16 20:54:35:009
-1.036721,-9.629773,-0.344776,-1.046419,-9.748977,-0.180238,0.003055,0.120003,-0.169175,0.030543,0.065973,-0.004887,0,24.9,54.9,5.2,181.678,83.8539,100.0291,0,1010.2031,39.87288,30.445724,-84.300995,115.7446,89.25398504,,0,19.35484,,14 / 14,16038,2018-04-16 20:54:35:109
-0.97447,-9.852441,-0.112531,-1.046419,-9.748977,-0.180238,-0.004754,-0.076904,0.02212,0.030543,0.065973,-0.004887,0,24.7,54.9,5.7,184.8807,83.784,99.7729,0,1010.2112,40.51059,30.445724,-84.300995,115.7446,89.25398504,,0,19.35484,,14 / 14,16137,2018-04-16 20:54:35:208
-1.132492,-9.751882,-0.153234,-1.036243,-9.750216,-0.171623,0.246121,0.086157,0.193931,-0.040317,0.083078,-0.015882,0,24.8,54.8,5.8,185.3455,83.8514,99.404,0,1010.2112,40.51059,30.445724,-84.300995,115.7446,89.25398504,,0,19.35484,,14 / 14,16238,2018-04-16 20:54:35:309
-0.691945,-9.668081,-0.06704,-1.032672,-9.749949,-0.20554,0.172026,-0.008744,-0.060989,-0.026878,-0.048869,0.015882,0,24.9,54.9,5.8,182.928,83.8363,101.2569,0,1010.2092,40.51059,30.445724,-84.300995,115.7446,89.25398504,,0,19.35484,,14 / 14,16337,2018-04-16 20:54:35:408
-0.847573,-9.75667,-0.29689,-0.988262,-9.754732,-0.196063,0.172026,-0.008744,-0.060989,-0.019548,-0.147829,-0.010996,0,24.9,54.9,5.8,182.928,83.8363,101.2569,0,1010.2092,42.19724,30.445724,-84.300995,115.7446,89.25398504,,0,19.35484,,14 / 14,16438,2018-04-16 20:54:35:509
-1.144463,-9.778218,-0.36393,-0.974997,-9.754798,-0.251761,-0.168743,-0.022677,-0.146131,-0.040317,-0.03543,-0.012217,0,24.8,55,5.6,182.9347,84.1031,101.2213,0,1010.2097,42.19724,30.445713,-84.300995,113.048,89.25398504,,0,19.35484,,14 / 14,16538,2018-04-16 20:54:35:609
-1.20432,-9.751882,-0.438152,-0.971064,-9.754725,-0.268976,-0.020939,0.028883,-0.019688,-0.006109,-0.067195,-0.018326,0,24.6,55.1,5.4,175.903,84.1063,104.4785,0,1010.2097,42.19724,30.445713,-84.300995,113.048,89.25398504,,0,19.35484,,14 / 14,16638,2018-04-16 20:54:35:709
-1.134886,-9.754275,-0.320833,-0.971064,-9.754725,-0.268976,-0.21537,0.032638,-0.115541,-0.006109,-0.067195,-0.018326,0,24.6,55.2,5.1,175.903,84.1063,104.4785,0,1010.197,40.61516,30.445713,-84.300995,113.048,89.25398504,,0,19.35484,,14 / 14,16738,2018-04-16 20:54:35:809
-1.331217,-9.663293,-0.251399,-0.989546,-9.751508,-0.314292,-0.345803,0.08762,0.093197,-0.034208,0.020769,-0.026878,0,24.4,55.3,5.1,172.275,83.9225,107.6205,0,1010.197,40.61516,30.445713,-84.300995,113.048,89.25398504,,0,19.35484,,14 / 14,16838,2018-04-16 20:54:35:909
-1.070241,-9.591465,-0.282524,-0.997505,-9.748532,-0.375604,-0.345803,0.08762,0.093197,-0.0562,0.120951,-0.025656,0,24.5,55.4,5.2,167.7547,83.7602,110.6335,0,1010.1826,40.61516,30.445713,-84.300995,113.048,89.25398504,,0,19.35484,,14 / 14,16938,2018-04-16 20:54:36:009
-0.936161,-9.77343,-0.548289,-0.994063,-9.748845,-0.376485,-2.30E-04,0.158987,0.079436,0.025656,0.112399,-0.020769,0,24.4,55.4,5.8,167.7547,83.7602,110.6335,0,1010.1826,39.67427,30.445713,-84.300995,113.048,89.25398504,,0,19.35484,,14 / 14,17038,2018-04-16 20:54:36:109
-0.646454,-9.75667,-0.581809,-0.943014,-9.751869,-0.426198,0.046812,0.109289,-0.121215,-0.043982,0.109956,-0.026878,0,24.6,55.4,6.3,165.959,83.9425,114.3207,0,1010.1799,39.67427,30.445713,-84.300995,113.048,89.25398504,,0,19.35484,,14 / 14,17138,2018-04-16 20:54:36:209
-0.763774,-9.646533,-0.428575,-0.943014,-9.751869,-0.426198,0.129562,0.103103,-0.077962,-0.043982,0.109956,-0.026878,0,24.6,55.4,6.3,165.959,83.9425,114.3207,0,1010.1799,39.67427,30.445713,-84.300995,113.048,89.25398504,,0,19.35484,,14 / 14,17237,2018-04-16 20:54:36:308
-0.861939,-9.70639,-0.553077,-0.877378,-9.756257,-0.464515,0.006939,0.050705,-0.090187,0.008552,-0.021991,-0.004887,0,24.7,55.6,6.6,164.2725,84.1898,117.8983,0,1010.1797,39.67427,30.445713,-84.300995,113.048,89.25398504,,0,19.35484,,14 / 14,17338,2018-04-16 20:54:36:409
-0.770956,-9.79019,-0.632089,-0.860877,-9.757813,-0.462487,0.08039,-0.031837,-0.163502,0.013439,-0.010996,-0.009774,0,24.7,55.6,6.9,163.902,84.2809,118.2459,0,1010.1797,38.78067,30.445713,-84.300995,113.048,89.25398504,,0,19.35484,,14 / 14,17438,2018-04-16 20:54:36:509
-0.919401,-9.699207,-0.385478,-0.839605,-9.75869,-0.482767,0.08039,-0.031837,-0.163502,-0.012217,-0.037874,-0.024435,0,24.4,55.6,7.1,163.902,84.2809,118.2459,0,1010.1682,38.78067,30.44571,-84.30099,111.8369,89.25398504,,0,19.35484,,14 / 14,17538,2018-04-16 20:54:36:609
-0.89067,-9.687236,-0.395055,-0.820499,-9.759949,-0.490238,-0.081906,0.041084,0.125411,-0.001222,-0.051313,-0.014661,0,24.3,55.7,7.1,162.4557,84.3323,119.8986,0,1010.1682,38.78067,30.44571,-84.30099,111.8369,89.25398504,,0,19.35484,,14 / 14,17637,2018-04-16 20:54:36:708
-0.794899,-9.711179,-0.555472,-0.829077,-9.760468,-0.464532,-0.008346,0.066023,0.021675,0.019548,-0.069639,0,0,24.3,55.7,6.6,161.3048,84.4068,120.8578,0,1010.1541,39.41464,30.44571,-84.30099,111.8369,89.25398504,,0,19.35484,,14 / 14,17737,2018-04-16 20:54:36:808
-0.835602,-9.703996,-0.450124,-0.829077,-9.760468,-0.464532,0.00511,-0.012752,-0.161406,0.019548,-0.069639,0,0,24.3,55.7,6.6,161.3048,84.4068,120.8578,0,1010.1541,39.41464,30.44571,-84.30099,111.8369,89.25398504,,0,19.35484,,14 / 14,17837,2018-04-16 20:54:36:908
-0.821236,-9.687236,-0.617723,-0.832785,-9.760206,-0.463199,-0.023619,0.053988,-0.141578,0.001222,-0.050091,-0.004887,0,24.8,55.7,5.4,157.221,84.4389,119.2619,0,1010.1665,39.41464,30.44571,-84.30099,111.8369,89.25398504,,0,19.35484,,14 / 14,17938,2018-04-16 20:54:37:009
-0.830813,-9.744699,-0.670397,-0.823078,-9.75978,-0.489162,-0.018182,0.015204,-0.166433,-0.009774,-0.043982,-0.020769,0,25.2,55.6,4.2,154.6097,84.4236,119.083,0,1010.1665,39.93227,30.44571,-84.30099,111.8369,89.25398504,,0,19.35484,,14 / 14,18038,2018-04-16 20:54:37:109
-0.914613,-9.675264,-0.464489,-0.805094,-9.75909,-0.530955,-0.018182,0.015204,-0.166433,-0.03543,-0.008552,-0.030543,0,24.7,55.5,5,155.3462,84.397,120.7233,0,1010.1755,39.93227,30.44571,-84.30099,111.8369,89.25398504,,0,19.35484,,14 / 14,18138,2018-04-16 20:54:37:209
-1.012778,-9.617802,-0.390267,-0.791706,-9.758706,-0.557485,-0.05627,0.129134,0.237183,0.001222,-0.020769,-0.003665,0,24.1,55.6,5.9,155.1538,84.3563,123.4046,0,1010.1755,39.93227,30.44571,-84.30099,111.8369,89.25398504,,0,19.35484,,14 / 14,18238,2018-04-16 20:54:37:309
-0.454912,-9.737515,-0.668003,-0.822376,-9.758853,-0.508498,-0.059236,0.056704,0.074874,0.041539,-0.034208,0.008552,0,23.7,55.6,6.5,160.1349,84.3417,121.7296,0,1010.1663,42.22382,30.44571,-84.30099,111.8369,89.25398504,,0,19.35484,,14 / 14,18338,2018-04-16 20:54:37:409
-0.756591,-9.562734,-0.67758,-0.822376,-9.758853,-0.508498,0.053473,0.245059,-0.118927,0.041539,-0.034208,0.008552,0,23.7,55.7,6.4,157.2526,84.3417,121.7296,0,1010.1663,42.22382,30.44571,-84.30099,111.8369,89.25398504,,0,19.35484,,14 / 14,18438,2018-04-16 20:54:37:509
-1.041509,-9.747093,-0.282524,-0.833517,-9.759872,-0.468948,-0.158092,0.001124,0.069606,0.106291,-0.053756,0.046426,0,23.7,55.7,6.4,157.2526,84.3417,121.7296,0,1010.146,42.22382,30.44571,-84.30099,111.8369,89.25398504,,0,19.35484,,14 / 14,18537,2018-04-16 20:54:37:608
-1.070241,-9.821315,-0.129291,-0.904126,-9.759625,-0.319788,-0.169055,-0.096681,0.090975,0.131947,0.081856,0.046426,0,23.8,55.7,5.9,157.2526,84.3417,121.7296,0,1010.146,42.22382,30.44571,-84.30099,111.8369,89.25398504,,0,19.35484,,14 / 14,18638,2018-04-16 20:54:37:709
-0.895459,-9.598648,-0.169993,-0.974965,-9.755923,-0.203635,-0.169055,-0.096681,0.090975,0.102625,0.054978,0.053756,0,24,55.3,5.6,173.0077,84.3879,109.4786,0,1010.1458,45.35208,30.44571,-84.30099,111.8369,89.25398504,,0,19.35484,,14 / 14,18738,2018-04-16 20:54:37:809
-1.3384,-9.838076,0.03352,-1.013676,-9.753918,-0.059415,0.174279,-0.014591,0.128394,0.103847,0.050091,0.023213,0,24.4,55,5.2,179.962,84.1708,101.7974,0,1010.1458,45.35208,30.44571,-84.30099,111.8369,89.25398504,,0,19.35484,,14 / 14,18838,2018-04-16 20:54:37:909
-1.177983,-9.711179,0.158022,-1.063376,-9.7488,-0.0127,-0.09993,-0.036214,0.147928,0.018326,-0.083078,0.042761,0,24.7,54.8,4.8,179.962,84.1708,101.7974,0,1010.1455,45.35208,30.44571,-84.30099,111.8369,89.25398504,,0,19.35484,,14 / 14,18938,2018-04-16 20:54:38:009
-0.97447,-9.754275,-0.112531,-1.063376,-9.7488,-0.0127,0.069128,0.095454,-0.041119,0.018326,-0.083078,0.042761,0,25,54.6,4.6,193.9355,83.7745,90.6843,0,1010.1455,49.60138,30.44571,-84.30099,111.8369,89.25398504,,0,19.35484,,14 / 14,19038,2018-04-16 20:54:38:109
-1.173195,-9.771035,-0.01676,-1.08915,-9.745925,0.026353,-0.081119,-0.025434,-0.040353,0.025656,-0.051313,0.015882,0,25.1,54.5,4.6,193.9355,83.7745,90.6843,0,1010.1377,49.60138,30.44571,-84.30099,111.8369,89.25398504,,0,19.35484,,14 / 14,19138,2018-04-16 20:54:38:209
-1.096578,-9.703996,-0.064645,-1.089303,-9.745944,0.00216,-0.067686,0.092812,0.003582,-0.039095,-0.052534,-0.009774,0,25.2,54.5,4.5,195.0911,83.6225,89.8864,0,1010.1377,49.60138,30.44571,-84.30099,111.8369,89.25398504,,0,19.35484,,14 / 14,19238,2018-04-16 20:54:38:309
-1.23784,-9.785401,-0.086194,-1.087346,-9.746137,-0.023646,-0.067686,0.092812,0.003582,-0.026878,-0.118508,0.001222,0,25.2,54.5,4.5,195.0911,83.6225,89.8864,0,1010.1243,43.75667,30.44571,-84.30099,111.8369,89.25398504,,0,19.35484,,14 / 14,19339,2018-04-16 20:54:38:410
-1.297697,-9.708784,0,-1.100188,-9.744558,-0.055803,-0.247975,0.020493,-0.064579,-0.045204,-0.020769,-0.009774,0,25.1,54.5,4.3,190.4006,83.6326,91.2458,0,1010.1243,43.75667,30.44571,-84.30099,111.8369,89.25398504,,0,19.35484,,14 / 14,19437,2018-04-16 20:54:38:508
-1.106155,-9.620196,-0.088588,-1.123746,-9.741792,-0.06759,-0.03196,0.084582,0.087195,-0.001222,-0.058643,0.013439,0,25.3,54.7,3.2,185.2617,83.5502,92.9036,0,1010.1216,43.75667,30.445698,-84.30099,110.6205,89.25398504,,0,19.35484,,14 / 14,19538,2018-04-16 20:54:38:609
-1.065452,-9.699207,-0.153234,-1.123746,-9.741792,-0.06759,0.069467,0.041321,-0.088448,-0.001222,-0.058643,0.013439,0,25.7,54.8,2.2,181.2734,83.408,93.442,0,1010.1216,40.38039,30.445698,-84.30099,110.6205,94.91499358,,0,19.35484,,14 / 14,19638,2018-04-16 20:54:38:709
-1.113338,-9.75667,-0.189148,-1.138938,-9.740038,-0.066443,-0.035675,-0.016207,-0.117001,0.002443,-0.053756,0.003665,0,26,54.7,1.3,181.2734,83.408,93.442,0,1010.1387,40.38039,30.445698,-84.30099,110.6205,94.91499358,,0,19.35484,,14 / 14,19738,2018-04-16 20:54:38:809
-1.065452,-9.711179,-0.110137,-1.131547,-9.740813,-0.077835,0.071163,0.013631,-0.0291,-0.006109,-0.006109,-0.008552,0,25.9,54.6,1.2,177.6867,83.3584,93.935,0,1010.1387,40.38039,30.445698,-84.30099,110.6205,94.91499358,,0,19.35484,,14 / 14,19838,2018-04-16 20:54:38:909
-1.087001,-9.725544,-0.136474,-1.114219,-9.74275,-0.084908,0.071163,0.013631,-0.0291,0.004887,-0.001222,-0.017104,0,25.5,54.6,2.1,180.0544,83.457,94.3577,0,1010.1631,40.38039,30.445698,-84.30099,110.6205,94.91499358,,0,19.35484,,14 / 14,19938,2018-04-16 20:54:39:009
-1.252206,-9.682447,0.059857,-1.09627,-9.744686,-0.097279,-0.071947,-0.003164,0.052763,-0.024435,0.031765,-0.017104,0,25.5,54.6,2.1,180.0544,83.457,94.3577,0,1010.1631,39.42993,30.445698,-84.30099,110.6205,94.91499358,,0,19.35484,,14 / 14,20037,2018-04-16 20:54:39:108
-1.075029,-9.615408,0.01676,-1.12033,-9.742195,-0.066839,-0.030486,0.157115,0.194977,0.053756,0.00733,0.020769,0,25,54.5,3.3,182.3668,83.5563,95.0709,0,1010.1604,39.42993,30.445698,-84.30099,110.6205,94.91499358,,0,19.35484,,14 / 14,20138,2018-04-16 20:54:39:209
-0.948133,-9.732727,-0.167599,-1.12033,-9.742195,-0.066839,0.167827,-0.029006,-0.18107,0.053756,0.00733,0.020769,0,24.6,54.6,4,182.3668,83.5563,95.0709,0,1010.1604,39.42993,30.445698,-84.30099,110.6205,94.91499358,,0,19.35484,,14 / 14,20238,2018-04-16 20:54:39:309
-1.15404,-9.792584,-0.253793,-1.112953,-9.743216,-0.032271,-0.027297,0.044796,0.012497,0.008552,0.004887,-0.004887,0,24.7,54.5,3.9,189.9307,83.4807,91.6609,0,1010.1711,39.36032,30.445698,-84.30099,110.6205,94.91499358,,0,19.35484,,14 / 14,20338,2018-04-16 20:54:39:409
-1.189955,-9.730332,-0.10056,-1.102775,-9.744196,-0.068566,-0.090745,0.014297,-0.037908,0,-0.017104,-0.008552,0,24.7,54.5,3.9,187.3809,83.5308,93.5579,0,1010.1711,39.36032,30.445698,-84.30099,110.6205,94.91499358,,0,19.35484,,14 / 14,20438,2018-04-16 20:54:39:509
-1.101366,-9.703996,-0.057463,-1.097053,-9.744868,-0.063374,-0.090745,0.014297,-0.037908,-0.003665,0.00733,-0.014661,0,24.7,54.6,3.9,187.7017,83.5662,93.3062,0,1010.1836,39.36032,30.445698,-84.30099,110.6205,94.91499358,,0,19.35484,,14 / 14,20538,2018-04-16 20:54:39:609
-1.189955,-9.749487,-0.10056,-1.084714,-9.746245,-0.064985,0.012521,0.094326,-0.037268,0,-0.015882,-0.014661,0,24.6,54.8,3.8,187.5108,83.6381,93.4285,0,1010.1836,38.97171,30.445698,-84.30099,110.6205,94.91499358,,0,19.35484,,14 / 14,20638,2018-04-16 20:54:39:709
-1.161223,-9.70639,0.047885,-1.07699,-9.746976,-0.081034,-0.11148,-0.005238,0.006224,-0.030543,0.00733,-0.019548,0,24.8,54.8,3.1,183.3709,83.677,94.3029,0,1010.1792,38.97171,30.445698,-84.30099,110.6205,94.91499358,,0,19.35484,,14 / 14,20738,2018-04-16 20:54:39:809
-1.51797,-9.682447,-0.088588,-1.07699,-9.746976,-0.081034,0.027892,-0.021415,0.207182,-0.030543,0.00733,-0.019548,0,24.8,54.8,3.1,183.3709,83.677,94.3029,0,1010.1792,38.97171,30.445698,-84.30099,110.6205,94.91499358,,0,19.35484,,14 / 14,20837,2018-04-16 20:54:39:908
-1.031932,-9.680053,-0.074223,-1.080961,-9.746533,-0.080923,0.063331,0.064968,-0.002673,0.006109,0.036652,0.013439,0,25.1,54.8,2.5,183.3709,83.677,94.3029,0,1010.189,39.40883,30.445698,-84.30099,110.6205,94.91499358,,0,19.35484,,14 / 14,20938,2018-04-16 20:54:40:009
-1.041509,-9.802161,-0.258582,-1.09732,-9.744868,-0.059973,0.002576,-0.008595,-0.169752,0.015882,0.021991,-0.002443,0,25.3,54.7,2.1,180.3894,83.6538,94.2813,0,1010.189,39.40883,30.445698,-84.30099,110.6205,94.91499358,,0,19.35484,,14 / 14,21038,2018-04-16 20:54:40:109
-0.928979,-9.682447,-0.225062,-1.075719,-9.747002,-0.093818,0.002576,-0.008595,-0.169752,-0.020769,0.045204,-0.018326,0,25,54.8,2.8,180.3894,83.6538,94.2813,0,1010.1902,39.40883,30.445698,-84.30099,110.6205,94.91499358,,0,19.35484,,14 / 14,21138,2018-04-16 20:54:40:209
-0.972076,-9.699207,-0.21309,-1.037422,-9.750788,-0.126015,0.159038,0.064015,-0.105328,-0.004887,0.041539,-0.015882,0,24.7,54.9,3.8,185.4377,83.6784,94.9844,0,1010.1902,39.40883,30.445698,-84.30099,110.6205,94.91499358,,0,19.35484,,14 / 14,21237,2018-04-16 20:54:40:308
-1.043904,-9.735122,-0.179571,-1.017208,-9.752587,-0.148951,-0.016469,0.016548,-0.040837,-0.002443,0.078191,-0.019548,0,24.7,55,4.3,182.8372,83.8827,96.9258,0,1010.198,39.38008,30.445698,-84.30099,110.6205,94.91499358,,0,19.35484,,14 / 14,21338,2018-04-16 20:54:40:409
-1.043904,-9.751882,-0.205908,-1.017208,-9.752587,-0.148951,-0.038023,0.078572,0.031528,-0.002443,0.078191,-0.019548,0,24.7,55.1,4.6,182.8372,83.8827,96.9258,0,1010.198,39.38008,30.44569,-84.300995,111.5881,94.91499358,,0,19.35484,,14 / 14,21441,2018-04-16 20:54:40:512
-0.967287,-9.684841,-0.079011,-0.993502,-9.754564,-0.176763,-0.003423,0.165828,0.081482,-0.019548,0.053756,-0.013439,0,24.5,55.3,5,181.5808,84.0938,100.0884,0,1010.1816,39.38008,30.44569,-84.300995,111.5881,94.91499358,,0,19.35484,,14 / 14,21538,2018-04-16 20:54:40:609
-0.962498,-9.742304,-0.299284,-0.994283,-9.754839,-0.156707,-0.088269,-0.010756,-0.295095,0.040317,0.019548,0,0,24.7,55.4,5.1,183.0429,84.1087,98.9566,0,1010.1816,39.59485,30.44569,-84.300995,111.5881,94.91499358,,0,19.35484,,14 / 14,21638,2018-04-16 20:54:40:709
-0.909824,-9.656111,-0.10056,-0.985772,-9.755557,-0.165914,-0.088269,-0.010756,-0.295095,0.00733,0.040317,-0.00733,0,24.7,55.4,5.1,183.0429,84.1087,98.9566,0,1010.189,39.59485,30.44569,-84.300995,111.5881,94.91499358,,0,19.35484,,14 / 14,21738,2018-04-16 20:54:40:809
-1.070241,-9.730332,-0.102954,-0.976816,-9.756822,-0.142926,-0.015449,0.088584,0.068602,0.029322,0.001222,0.003665,0,24.7,55.4,5.1,183.0429,84.1087,98.9566,0,1010.189,39.59485,30.44569,-84.300995,111.5881,94.91499358,,0,19.35484,,14 / 14,21838,2018-04-16 20:54:40:909
-0.917007,-9.778218,-0.136474,-0.982518,-9.756624,-0.113662,-0.056288,0.011986,0.015547,0.013439,0.018326,-0.00733,0,25,55.3,5,183.838,84.2223,98.3243,0,1010.2034,40.14971,30.44569,-84.300995,111.5881,94.91499358,,0,19.35484,,14 / 14,21938,2018-04-16 20:54:41:009
-1.02475,-9.725544,-0.03352,-0.982518,-9.756624,-0.113662,-0.012665,-0.001304,0.091022,0.013439,0.018326,-0.00733,0,25.1,55.2,5.4,186.0574,84.2115,96.5989,0,1010.2034,40.14971,30.44569,-84.300995,111.5881,94.91499358,,0,19.35484,,14 / 14,22038,2018-04-16 20:54:41:109
-1.067846,-9.562734,0.102954,-0.958002,-9.758865,-0.130224,-0.109163,0.19592,0.242836,-0.047647,0.009774,-0.019548,0,25.1,55.3,5.6,187.3327,84.3422,97.7409,0,1010.2109,40.14971,30.44569,-84.300995,111.5881,94.91499358,,0,19.35484,,14 / 14,22138,2018-04-16 20:54:41:209
-0.938556,-9.711179,-0.179571,-0.976875,-9.757203,-0.111884,0.094153,-0.015221,-0.119156,0.046426,-0.015882,0.014661,0,24.9,55.3,5.6,188.9102,84.2456,96.5338,0,1010.2109,40.099,30.44569,-84.300995,111.5881,94.91499358,,0,19.35484,,14 / 14,22238,2018-04-16 20:54:41:309
-0.883487,-9.821315,-0.234639,-1.000582,-9.755304,-0.053539,0.094153,-0.015221,-0.119156,0.023213,-0.012217,0.006109,0,24.9,55.2,5.5,193.4063,84.1354,93.0628,0,1010.197,40.099,30.44569,-84.300995,111.5881,94.91499358,,0,19.35484,,14 / 14,22338,2018-04-16 20:54:41:409
-0.97447,-9.663293,-0.107742,-0.982783,-9.756889,-0.084614,0.100786,0.035369,-0.039469,0.001222,-0.0281,-0.003665,0,25,55.1,4.9,193.4063,84.1354,93.0628,0,1010.197,40.099,30.44569,-84.300995,111.5881,94.91499358,,0,19.35484,,14 / 14,22438,2018-04-16 20:54:41:509
-0.993624,-9.783007,-0.093377,-0.984022,-9.756787,-0.080914,-0.087592,0.053169,-0.025448,0.001222,-0.002443,-0.004887,0,25,55.1,4.9,193.4063,84.1354,93.0628,0,1010.1724,40.099,30.44569,-84.300995,111.5881,94.91499358,,0,19.35484,,14 / 14,22537,2018-04-16 20:54:41:608
-1.075029,-9.687236,-0.019154,-0.984022,-9.756787,-0.080914,-0.132994,0.079484,0.026647,0.001222,-0.002443,-0.004887,0,24.9,55,4.8,188.4894,84.2215,94.7007,0,1010.1724,40.50508,30.44569,-84.300995,111.5881,94.91499358,,0,19.35484,,14 / 14,22638,2018-04-16 20:54:41:709
-1.041509,-9.534002,0.126897,-0.98318,-9.756824,-0.089151,-0.096093,0.192739,0.197741,-0.004887,0.003665,-0.001222,0,24.8,55,5.2,188.4894,84.2215,94.7007,0,1010.1733,40.50508,30.44569,-84.300995,111.5881,94.91499358,,0,19.35484,,14 / 14,22738,2018-04-16 20:54:41:809
-1.027144,-9.794978,-0.184359,-1.019778,-9.753448,-0.016561,0.07591,-0.098313,-0.250278,0.081856,-0.003665,0.0281,0,24.8,55,5.2,193.4398,84.0303,90.9304,0,1010.1733,40.50508,30.44569,-84.300995,111.5881,94.91499358,,0,19.35484,,14 / 14,22838,2018-04-16 20:54:41:909
-0.926584,-9.833286,-0.193936,-1.036982,-9.751649,0.008745,0.07591,-0.098313,-0.250278,-0.004887,0.002443,0.004887,0,24.8,54.9,5.1,193.4398,84.0303,90.9304,0,1010.1694,40.16853,30.44569,-84.300995,111.5881,94.91499358,,0,19.35484,,14 / 14,22938,2018-04-16 20:54:42:009
-1.036721,-9.692024,-0.06704,-1.015533,-9.753881,-0.021097,-0.013317,0.061054,-0.054983,-0.001222,0.014661,-0.008552,0,24.7,54.7,4.9,195.3353,83.9298,89.5168,0,1010.1694,40.16853,30.44569,-84.300995,111.5881,94.91499358,,0,19.35484,,14 / 14,23037,2018-04-16 20:54:42:108
-1.039115,-9.701602,-0.004789,-1.008774,-9.754593,-0.01966,0.039762,0.045474,0.057953,0.001222,-0.009774,-0.003665,0,25.2,54.6,4.2,190.249,84.0548,91.1901,0,1010.1584,40.16853,30.44569,-84.300995,111.5881,94.91499358,,0,19.35484,,14 / 14,23138,2018-04-16 20:54:42:209
-1.060664,-9.727939,0.011971,-1.008774,-9.754593,-0.01966,-0.103598,0.050743,0.018537,0.001222,-0.009774,-0.003665,0,25.9,54.6,2.9,190.249,84.0548,91.1901,0,1010.1584,39.09641,30.44569,-84.300995,111.5881,94.91499358,,0,19.35484,,14 / 14,23237,2018-04-16 20:54:42:308
-1.060664,-9.646533,0.095771,-1.011623,-9.754295,-0.021253,-0.045019,0.107305,0.128063,-0.019548,-0.010996,-0.00733,0,26.4,54.7,1.9,184.111,84.0777,91.2036,0,1010.1565,39.09641,30.44569,-84.300995,111.5881,94.91499358,,0,19.35484,,14 / 14,23338,2018-04-16 20:54:42:409
-1.019961,-9.720756,-0.184359,-1.02577,-9.752769,-0.03474,0.001768,-0.004435,-0.235157,0.004887,-0.021991,0.008552,0,26.7,54.7,1.7,182.9369,83.9925,91.9397,0,1010.1565,39.09641,30.44569,-84.300995,111.5881,94.91499358,,0,19.35484,,14 / 14,23438,2018-04-16 20:54:42:509
-0.94095,-9.914692,-0.174782,-1.032008,-9.75215,-0.024486,0.001768,-0.004435,-0.235157,-0.015882,-0.03543,-0.008552,0,26.7,54.7,1.7,182.9369,83.9925,91.9397,0,1010.1516,41.8019,30.44569,-84.300995,111.5881,94.91499358,,0,19.35484,,14 / 14,23538,2018-04-16 20:54:42:609
-1.479662,-9.58907,0.019154,-0.996748,-9.755353,-0.097349,-0.048021,-0.002628,0.040405,-0.067195,0.054978,-0.032987,0,26.6,54.8,1.9,182.9369,83.9925,91.9397,0,1010.1516,41.8019,30.44569,-84.300995,111.5881,94.91499358,,0,19.35484,,14 / 14,23637,2018-04-16 20:54:42:708
-0.818842,-9.596253,0.03352,-1.054412,-9.749178,-0.107782,-0.255556,0.122443,0.197737,0.020769,0.160047,0.00733,0,26.5,54.8,2.2,178.2958,84.1386,95.5782,0,1010.1521,41.8019,30.44569,-84.300995,111.5881,94.91499358,,0,19.35484,,14 / 14,23738,2018-04-16 20:54:42:809
-0.586597,-9.763853,-0.323227,-1.054412,-9.749178,-0.107782,0.446711,-0.012245,-0.231712,0.020769,0.160047,0.00733,0,26.3,54.8,2.5,180.9719,83.7953,95.8365,0,1010.1521,41.8019,30.44569,-84.300995,111.5881,94.91499358,,0,19.35484,,14 / 14,23838,2018-04-16 20:54:42:909
-0.933767,-9.720756,-0.181965,-0.987913,-9.756175,-0.105958,-0.151634,0.019531,-0.035891,-0.024435,-0.040317,-0.002443,0,26.4,54.8,2.9,180.5884,84.185,96.1218,0,1010.1638,45.74562,30.44569,-84.300995,111.5881,94.91499358,,0,19.35484,,14 / 14,23938,2018-04-16 20:54:43:009
-1.079818,-9.670476,-0.136474,-0.982678,-9.756246,-0.141691,0.069928,0.024125,0.043324,-0.017104,0.002443,0.008552,0,26,54.9,3,177.9251,84.1894,98.2049,0,1010.1638,45.74562,30.44569,-84.300995,111.5881,94.91499358,,0,19.35484,,14 / 14,24038,2018-04-16 20:54:43:109
-0.993624,-9.747093,-0.31365,-1.001809,-9.754233,-0.146145,0.069928,0.024125,0.043324,0.018326,0.029322,0.004887,0,26,54.9,3,177.9251,84.1894,98.2049,0,1010.1643,45.74562,30.44569,-84.300995,111.5881,94.91499358,,0,19.35484,,14 / 14,24138,2018-04-16 20:54:43:209
-0.708705,-9.646533,-0.160416,-1.017441,-9.752351,-0.162789,-0.012374,0.118742,0.04383,0.019548,0.139277,-0.001222,0,25.4,55,4.3,181.0261,84.0744,98.2998,0,1010.1643,40.77355,30.44569,-84.300995,111.5881,94.91499358,,0,19.35484,,14 / 14,24238,2018-04-16 20:54:43:309
-0.837996,-9.754275,-0.270553,-1.003374,-9.7542,-0.137634,0.169847,-7.75E-04,-0.117672,0.036652,-0.046426,0.008552,0,25.2,55.1,5.6,185.721,83.9688,99.0902,0,1010.1729,40.77355,30.44569,-84.300995,111.5881,94.91499358,,0,19.35484,,14 / 14,24338,2018-04-16 20:54:43:409
-1.084606,-9.771035,-0.256187,-1.003374,-9.7542,-0.137634,-0.090517,-0.017798,-0.053101,0.036652,-0.046426,0.008552,0,25.4,55.2,6.4,187.342,84.0723,97.8106,0,1010.1729,40.77355,30.44569,-84.300995,111.5881,94.91499358,,0,19.35484,,14 / 14,24438,2018-04-16 20:54:43:509
-1.144463,-9.653716,-0.098165,-1.033344,-9.751181,-0.128935,-0.120619,0.07175,-0.013565,0.025656,-0.053756,0.024435,0,25.5,55.4,6.3,187.5791,83.9043,97.1123,0,1010.1653,40.03883,30.44569,-84.300995,111.5881,94.91499358,,0,19.35484,,14 / 14,24538,2018-04-16 20:54:43:609
-1.158829,-9.61062,-0.057463,-1.074532,-9.747326,-0.071386,-0.129458,0.062691,0.086385,0.086743,0.001222,0.021991,0,25.5,55.3,6,191.9513,83.6955,93.8008,0,1010.1653,40.03883,30.44569,-84.300995,111.5881,94.91499358,,0,19.35484,,14 / 14,24638,2018-04-16 20:54:43:709
-1.218686,-9.763853,0.028731,-1.12237,-9.742031,0.053686,-0.129458,0.062691,0.086385,0.076969,-0.062308,0.024435,0,25.5,55.3,6,191.9513,83.6955,93.8008,0,1010.1631,40.03883,30.44569,-84.300995,111.5881,94.91499358,,0,19.35484,,14 / 14,24738,2018-04-16 20:54:43:809
-1.20432,-9.708784,0.146051,-1.147581,-9.738688,0.105046,-0.065919,0.031176,0.061651,0.032987,-0.034208,0.002443,0,25.7,55.3,5.4,197.9423,83.4205,87.2615,0,1010.1631,40.09194,30.44569,-84.300995,111.5881,94.91499358,,0,19.35484,,14 / 14,24838,2018-04-16 20:54:43:909
-1.15404,-9.713573,0.172388,-1.161157,-9.736395,0.156281,-0.03102,0.016557,0.056114,0.040317,-0.013439,-0.001222,0,25.7,55.1,4.7,201.3548,83.2516,84.7699,0,1010.1731,40.09194,30.44569,-84.300995,111.5881,94.91499358,,0,19.35484,,14 / 14,24938,2018-04-16 20:54:44:009
-1.132492,-9.670476,0.208302,-1.161157,-9.736395,0.156281,0.022218,0.02477,0.064886,0.040317,-0.013439,-0.001222,0,25.9,55.1,4,201.9066,83.1383,82.3346,0,1010.1731,40.09194,30.44569,-84.300995,111.5881,94.91499358,,0,19.35484,,14 / 14,25038,2018-04-16 20:54:44:109
-1.101366,-9.658504,0.26337,-1.159153,-9.735931,0.19495,0.055905,0.077294,0.051463,0.020769,-0.024435,-0.006109,0,25.9,55.1,3.7,201.9066,83.1383,82.3346,0,1010.1665,40.09194,30.445698,-84.301,112.229,94.91499358,,0,25.806452,,14 / 14,25138,2018-04-16 20:54:44:209
-1.20432,-9.732727,0.174782,-1.159295,-9.734959,0.237875,-0.045629,-0.02935,-0.08871,0.040317,-0.047647,0.008552,0,26.1,55.2,3.2,204.3426,83.0687,78.4045,0,1010.1665,39.10632,30.445698,-84.301,112.229,94.91499358,,0,25.806452,,14 / 14,25238,2018-04-16 20:54:44:309
-1.177983,-9.624985,0.308861,-1.155678,-9.734709,0.264296,-0.045629,-0.02935,-0.08871,0.015882,-0.009774,-0.008552,0,25.9,55.1,2.8,206.0423,83.0566,77.1184,0,1010.1646,39.10632,30.445698,-84.301,112.229,94.91499358,,0,25.806452,,14 / 14,25338,2018-04-16 20:54:44:409
-1.259389,-9.725544,0.301679,-1.149636,-9.734684,0.290283,-0.071522,-0.009912,0.057463,0.017104,0.058643,-0.014661,0,25.9,55.1,2.8,206.0423,83.0566,77.1184,0,1010.1646,39.10632,30.445698,-84.301,112.229,94.91499358,,0,25.806452,,14 / 14,25438,2018-04-16 20:54:44:509
-1.039115,-9.682447,0.395055,-1.134062,-9.736037,0.305619,0.1068,0.052423,0.096406,0.008552,-0.029322,-0.015882,0,25.8,55.1,2.8,207.726,83.0554,75.829,0,1010.1626,40.12579,30.445698,-84.301,112.229,94.91499358,,0,25.806452,,14 / 14,25537,2018-04-16 20:54:44:608
-1.087001,-9.742304,0.277736,-1.134062,-9.736037,0.305619,-3.89E-04,0.017448,-0.086787,0.008552,-0.029322,-0.015882,0,25.7,55.1,2.8,208.819,83.1213,74.9176,0,1010.1626,40.12579,30.445698,-84.301,112.229,94.91499358,,0,25.806452,,14 / 14,25637,2018-04-16 20:54:44:708
-1.075029,-9.720756,0.342381,-1.098171,-9.740028,0.309548,-0.144769,0.087747,-0.053838,-0.021991,-0.09896,-0.010996,0,25.6,55,2.8,209.3939,83.3187,74.2582,0,1010.1707,40.12579,30.445698,-84.301,112.229,94.91499358,,0,25.806452,,14 / 14,25738,2018-04-16 20:54:44:809
-1.412622,-9.603436,0.416604,-1.077758,-9.742892,0.291029,0.199262,0.150441,0.031144,-0.039095,-0.086743,-0.029322,0,25.5,55,2.5,208.3901,83.4634,74.8887,0,1010.1707,39.95342,30.445698,-84.301,112.229,94.91499358,,0,25.806452,,14 / 14,25838,2018-04-16 20:54:44:909
-1.225869,-9.629773,0.466884,-1.088429,-9.741708,0.290575,0.199262,0.150441,0.031144,0.008552,-0.166155,-0.012217,0,25.1,54.9,2.2,206.0255,83.4035,75.0525,0,1010.1782,39.95342,30.445698,-84.301,112.229,94.91499358,,0,25.806452,,14 / 14,25938,2018-04-16 20:54:45:009
-1.28812,-9.763853,0.153234,-1.084066,-9.742,0.297069,-0.193411,-0.034577,-0.12202,-0.039095,0.001222,-0.039095,0,25.1,54.9,2.2,206.0255,83.4035,75.0525,0,1010.1782,39.95342,30.445698,-84.301,112.229,94.91499358,,0,25.806452,,14 / 14,26038,2018-04-16 20:54:45:109
-1.075029,-9.591465,0.387873,-1.076902,-9.743526,0.272262,0.002889,0.151955,0.116158,0.019548,0.023213,-0.003665,0,24.9,55,1.9,206.497,83.4183,74.6753,0,1010.1738,39.4828,30.445698,-84.301,112.229,94.91499358,,0,25.806452,,14 / 14,26138,2018-04-16 20:54:45:209
-1.029538,-9.682447,0.131685,-1.076902,-9.743526,0.272262,0.074427,-0.025167,-0.098632,0.019548,0.023213,-0.003665,0,24.7,55.1,1.7,204.9172,83.4962,75.8118,0,1010.1738,39.4828,30.445698,-84.301,112.229,94.91499358,,0,25.806452,,14 / 14,26238,2018-04-16 20:54:45:309
-1.031932,-9.718362,0.227456,-1.075403,-9.743568,0.276365,-0.014333,-0.00819,-0.096285,0.00733,0.048869,0.00733,0,24.6,55.1,1.8,205.2055,83.4988,75.5876,0,1010.1787,39.4828,30.445698,-84.301,112.229,94.91499358,,0,25.806452,,14 / 14,26337,2018-04-16 20:54:45:408
-1.051087,-9.672871,0.265765,-1.071841,-9.744308,0.264397,0.080449,0.066127,0.015623,0.008552,0.09163,0.001222,0,24.8,55.1,2,204.4361,83.5363,76.1432,0,1010.1787,39.4828,30.445698,-84.301,112.229,94.91499358,,0,25.806452,,14 / 14,26438,2018-04-16 20:54:45:509
-1.029538,-9.660899,0.282524,-1.080851,-9.743097,0.271693,0.080449,0.066127,0.015623,0.023213,0.084299,0.009774,0,24.9,55,2.3,204.8428,83.4745,75.8899,0,1010.1724,39.08556,30.445698,-84.301,112.229,94.91499358,,0,25.806452,,14 / 14,26538,2018-04-16 20:54:45:609
-0.986441,-9.672871,0.260976,-1.091865,-9.741582,0.281887,0.101492,0.069325,-0.014617,0.024435,0.040317,0.015882,0,25,54.9,2.3,204.8428,83.4745,75.8899,0,1010.1724,39.08556,30.445698,-84.301,112.229,94.91499358,,0,25.806452,,14 / 14,26638,2018-04-16 20:54:45:709
-1.063058,-9.715967,0.253793,-1.088466,-9.741724,0.289671,0.067938,0.008588,-0.058086,0.001222,0.006109,-0.002443,0,25,54.9,2.3,204.8428,83.4745,75.8899,0,1010.1636,39.08556,30.445698,-84.301,112.229,94.91499358,,0,25.806452,,14 / 14,26738,2018-04-16 20:54:45:809
-0.948133,-9.670476,0.318439,-1.088466,-9.741724,0.289671,0.076681,0.078991,0.023622,0.001222,0.006109,-0.002443,0,25.1,54.6,2.6,208.8754,83.4047,75.0974,0,1010.1636,38.86202,30.445698,-84.301,112.229,94.91499358,,0,25.806452,,14 / 14,26837,2018-04-16 20:54:45:908
-1.182772,-9.699207,0.217879,-1.082364,-9.742506,0.286333,-0.107049,0.043872,-0.073831,0.002443,-0.061087,0.003665,0,25.2,54.5,2.7,208.8754,83.4047,75.0974,0,1010.1543,38.86202,30.445698,-84.301,112.229,94.91499358,,0,25.806452,,14 / 14,26937,2018-04-16 20:54:46:008
-1.429382,-9.648928,0.258582,-1.083983,-9.742084,0.294561,-0.235875,0.097901,0.023876,0.008552,-0.047647,0.008552,0,25.2,54.3,2.8,209.0717,83.4227,74.7976,0,1010.1543,38.86202,30.445698,-84.301,112.229,94.91499358,,0,25.806452,,14 / 14,27038,2018-04-16 20:54:46:109
-1.034327,-9.684841,0.368718,-1.166663,-9.73167,0.321461,-0.235875,0.097901,0.023876,0.030543,0.003665,0.029322,0,25.1,54.3,2.8,210.0735,82.9116,74.5951,0,1010.145,40.39089,30.445698,-84.301,112.229,94.91499358,,0,25.806452,,14 / 14,27137,2018-04-16 20:54:46:208
-1.103761,-9.735122,0.24661,-1.171833,-9.730356,0.34228,0.13084,-0.014931,-0.041295,-0.004887,0.0281,-0.003665,0,25,54.2,2.7,211.317,82.8489,73.7175,0,1010.145,40.39089,30.445698,-84.301,112.229,94.91499358,,0,25.806452,,14 / 14,27237,2018-04-16 20:54:46:308
-1.142069,-9.615408,0.375901,-1.162582,-9.731639,0.33702,0.016106,0.10405,0.066191,0.013439,0.017104,-0.001222,0,25,54.2,2.4,208.1341,82.9098,73.8337,0,1010.1426,40.39089,30.445698,-84.301,112.229,94.91499358,,0,25.806452,,14 / 14,27337,2018-04-16 20:54:46:408
-1.163618,-9.668081,0.282524,-1.162582,-9.731639,0.33702,-3.80E-05,0.06324,-0.060223,0.013439,0.017104,-0.001222,0,25,54.2,2.4,208.1341,82.9098,73.8337,0,1010.1426,39.37047,30.445698,-84.301,112.229,94.91499358,,0,25.806452,,14 / 14,27438,2018-04-16 20:54:46:509
-1.077424,-9.737515,0.292102,-1.167205,-9.730672,0.348987,0.02798,0.064831,-0.033047,0.013439,0.012217,0.012217,0,25.1,54.1,2.5,211.7691,82.8638,73.3536,0,1010.1416,39.37047,30.445698,-84.301,112.229,94.91499358,,0,25.806452,,14 / 16,27537,2018-04-16 20:54:46:608
-1.161223,-9.703996,0.320833,-1.170055,-9.729925,0.359926,0.020718,-0.025025,-0.100082,0.021991,-0.021991,0.013439,0,25.1,54,2.5,212.4139,82.8291,72.9014,0,1010.1416,39.37047,30.445698,-84.301,112.229,94.91499358,,0,25.806452,,14 / 16,27637,2018-04-16 20:54:46:708
-1.209109,-9.680053,0.22985,-1.169355,-9.729805,0.365275,0.020718,-0.025025,-0.100082,0.001222,0.034208,-0.008552,0,25.2,53.7,2.5,212.7468,82.8236,72.6526,0,1010.1543,39.37047,30.445698,-84.301,112.229,94.91499358,,0,25.806452,,14 / 16,27738,2018-04-16 20:54:46:809
-1.142069,-9.644139,0.418998,-1.171614,-9.729022,0.378901,0.048043,0.102332,0.053763,0.026878,0.010996,0.002443,0,25.1,53.6,2.5,213.554,82.7867,72.0787,0,1010.1543,40.1461,30.445698,-84.301,112.229,94.91499358,,0,25.806452,,14 / 16,27837,2018-04-16 20:54:46:908
-1.197137,-9.692024,0.442941,-1.188989,-9.725901,0.403974,-0.017615,0.035552,0.051764,0.023213,0.031765,0.006109,0,25,53.5,2.6,214.8934,82.6431,71.2342,0,1010.1587,40.1461,30.445698,-84.301,112.229,94.91499358,,0,25.806452,,14 / 16,27938,2018-04-16 20:54:47:009
-1.256994,-9.692024,0.421392,-1.188989,-9.725901,0.403974,-0.093583,0.049174,0.017957,0.023213,0.031765,0.006109,0,25,53.5,2.6,214.8934,82.6431,71.2342,0,1010.1587,40.1461,30.445698,-84.301,112.229,94.91499358,,0,25.806452,,14 / 16,28037,2018-04-16 20:54:47:108
-1.166012,-9.713573,0.421392,-1.206308,-9.722783,0.427065,-0.061567,0.065795,0.015377,0.020769,0.024435,0.009774,0,24.9,53.4,2.7,215.8575,82.5021,70.5047,0,1010.1597,38.90381,30.445698,-84.301,112.229,94.91499358,,0,25.806452,,14 / 16,28138,2018-04-16 20:54:47:209
-1.245023,-9.694419,0.474066,-1.213294,-9.721087,0.445395,-0.071361,0.054708,0.051729,0.006109,0,0.004887,0,25.1,53.3,2.7,216.8482,82.4267,69.842,0,1010.1597,38.90381,30.445698,-84.301,112.229,94.91499358,,0,25.806452,,14 / 16,28238,2018-04-16 20:54:47:309
-1.276148,-9.668081,0.521952,-1.220483,-9.71965,0.456989,-0.071361,0.054708,0.051729,0.001222,0.004887,0.002443,0,25.2,53.2,2.5,217.4398,82.3632,69.4725,0,1010.1543,38.90381,30.445698,-84.301,112.229,94.91499358,,0,25.806452,,14 / 16,28337,2018-04-16 20:54:47:408
-1.209109,-9.699207,0.514769,-1.224752,-9.718787,0.46373,0.007696,0.094054,0.058842,-0.004887,-0.020769,-0.001222,0,25.2,53.2,2.5,217.7803,82.3257,69.2617,0,1010.1543,39.29149,30.445698,-84.301,112.229,94.91499358,,0,25.806452,,14 / 16,28438,2018-04-16 20:54:47:509
-1.247417,-9.687236,0.476461,-1.219434,-9.719446,0.464023,-0.025735,0.031939,0.012558,-0.014661,-0.026878,-0.001222,0,25.1,53.2,2.1,214.9406,82.3543,69.167,0,1010.1516,39.29149,30.445698,-84.301,112.229,94.91499358,,0,25.806452,,14 / 16,28538,2018-04-16 20:54:47:609
-1.230657,-9.63935,0.509981,-1.219434,-9.719446,0.464023,-0.032027,0.065268,-0.010674,-0.014661,-0.026878,-0.001222,0,25.1,53.2,2.1,214.9406,82.3543,69.167,0,1010.1516,39.29149,30.445698,-84.301,112.229,94.91499358,,0,25.806452,,14 / 16,28637,2018-04-16 20:54:47:708
-1.245023,-9.711179,0.368718,-1.224093,-9.718712,0.467062,0.005028,0.019961,-0.075473,-0.00733,-0.002443,-0.003665,0,25.1,53.2,2.1,215.063,82.3223,69.1153,0,1010.1577,39.16641,30.445698,-84.301,112.229,94.91499358,,0,25.806452,,14 / 16,28738,2018-04-16 20:54:47:809
-1.252206,-9.660899,0.411815,-1.22031,-9.720117,0.447639,0.018345,0.021417,-0.040628,-0.013439,-0.00733,-0.004887,0,25.2,53.2,2.2,213.9863,82.3833,69.8558,0,1010.1577,39.16641,30.445698,-84.301,112.229,94.91499358,,0,25.806452,,14 / 16,28837,2018-04-16 20:54:47:908
-1.235446,-9.696813,0.402238,-1.216484,-9.720963,0.439262,0.018345,0.021417,-0.040628,-0.010996,-0.004887,-0.001222,0,25.2,53.1,2.3,213.5418,82.4214,70.1458,0,1010.1658,39.16641,30.445698,-84.301,112.229,94.91499358,,0,25.806452,,14 / 16,28938,2018-04-16 20:54:48:009
-1.130098,-9.63935,0.454912,-1.214525,-9.723189,0.393315,0.089208,0.082237,0.037632,-0.034208,0.008552,-0.012217,0,25.2,53.2,2.4,210.8649,82.52,72.0558,0,1010.1658,39.16641,30.445698,-84.301,112.229,94.91499358,,0,25.806452,,14 / 16,29039,2018-04-16 20:54:48:110
-1.23784,-9.632168,0.426181,-1.212466,-9.724708,0.360937,-0.042121,0.058177,-0.059352,-0.031765,0.003665,-0.003665,0,25.2,53.2,2.3,208.9529,82.5882,73.4223,0,1010.158,38.89771,30.445698,-84.301,112.229,94.91499358,,0,25.806452,,14 / 16,29138,2018-04-16 20:54:48:209
-1.235446,-9.636956,0.509981,-1.212466,-9.724708,0.360937,-0.165003,0.054319,-0.034144,-0.031765,0.003665,-0.003665,0,25.2,53.2,2.3,208.9529,82.5882,73.4223,0,1010.158,38.89771,30.445698,-84.301,112.229,94.91499358,,0,25.806452,,14 / 16,29238,2018-04-16 20:54:48:309
-1.228263,-9.668081,0.392661,-1.226966,-9.723517,0.342967,0.126653,0.056742,-0.048551,-0.025656,-0.019548,0.017104,0,25.1,53.2,2.7,210.7217,82.5355,74.383,0,1010.177,38.89771,30.445698,-84.301,112.229,94.91499358,,0,25.806452,,14 / 16,29338,2018-04-16 20:54:48:409
-1.216291,-9.692024,0.339987,-1.236621,-9.722706,0.33128,0.018677,0.031132,0.015714,-0.012217,-0.073304,0.00733,0,25,53.2,2.7,209.9556,82.4988,75.0031,0,1010.177,39.40268,30.445698,-84.301,112.229,94.91499358,,0,25.806452,,14 / 16,29438,2018-04-16 20:54:48:509
-1.297697,-9.677659,0.198725,-1.237314,-9.72302,0.319235,0.018677,0.031132,0.015714,-0.024435,-0.076969,0.008552,0,25,53.2,2.5,209.2316,82.5129,75.5328,0,1010.1777,39.40268,30.445698,-84.301,112.229,94.91499358,,0,25.806452,,14 / 16,29537,2018-04-16 20:54:48:608
-1.280937,-9.656111,0.162811,-1.251034,-9.722562,0.277037,0.020025,0.006494,-0.122825,-0.046426,-0.072082,0.009774,0,24.9,53.2,2.1,203.5949,82.4922,77.5135,0,1010.1777,39.40268,30.445698,-84.301,112.229,94.91499358,,0,25.806452,,14 / 16,29637,2018-04-16 20:54:48:708
-1.297697,-9.677659,0.162811,-1.254568,-9.723606,0.218121,0.055891,0.033132,-0.121413,-0.047647,-0.064752,0.003665,0,24.9,53.2,2.2,199.9775,82.5391,80.1371,0,1010.1877,38.51102,30.445698,-84.301,112.229,94.91499358,,0,25.806452,,14 / 16,29738,2018-04-16 20:54:48:809
-1.273754,-9.675264,0.126897,-1.254568,-9.723606,0.218121,-0.015595,0.048502,-0.061251,-0.047647,-0.064752,0.003665,0,24.9,53.2,2.2,199.9775,82.5391,80.1371,0,1010.1877,38.51102,30.445698,-84.301,112.229,94.91499358,,0,25.806452,,14 / 16,29838,2018-04-16 20:54:48:909
-1.326428,-9.651321,0.119714,-1.261578,-9.723693,0.168605,-0.031927,0.038183,-0.037328,-0.023213,-0.045204,0.004887,0,24.8,53.2,2.4,199.9775,82.5391,80.1371,0,1010.1902,38.51102,30.445698,-84.301,112.229,94.91499358,,0,25.806452,,14 / 16,29938,2018-04-16 20:54:49:009
-1.297697,-9.651321,0.088588,-1.272994,-9.722487,0.150836,-0.038774,0.017881,-0.082004,-0.009774,-0.021991,0.004887,0,24.5,53.2,2.6,198.8574,82.4889,83.2426,0,1010.1902,38.69867,30.445698,-84.301,112.229,94.91499358,,0,25.806452,,14 / 16,30038,2018-04-16 20:54:49:109
-1.256994,-9.641745,0.074223,-1.28152,-9.721491,0.14255,-0.038774,0.017881,-0.082004,0.003665,-0.009774,0.004887,0,24.4,53.2,2.6,199.0179,82.4446,83.6528,0,1010.1816,38.69867,30.445698,-84.301,112.229,94.91499358,,0,25.806452,,14 / 16,30137,2018-04-16 20:54:49:208
-1.326428,-9.696813,0.062251,-1.282845,-9.721345,0.140259,-0.024002,0.034047,-0.093227,0.00733,-0.013439,0.001222,0,24.4,53.2,2.3,195.7481,82.4446,83.6528,0,1010.1816,38.69867,30.445698,-84.301,112.229,94.91499358,,0,25.806452,,14 / 16,30238,2018-04-16 20:54:49:309
-1.340794,-9.483723,0.519558,-1.292626,-9.718403,0.227981,-0.054662,0.236857,0.357839,0.076969,0.032987,0.003665,0,24.3,53.2,2.2,195.6026,82.4383,83.7604,0,1010.179,38.69867,30.445698,-84.301,112.229,94.91499358,,0,25.806452,,14 / 16,30338,2018-04-16 20:54:49:409
-1.166012,-9.677659,0.249005,-1.292626,-9.718403,0.227981,0.13312,-0.064419,-0.207319,0.076969,0.032987,0.003665,0,24.3,53.1,2.1,195.6026,82.4383,83.7604,0,1010.179,38.60799,30.445698,-84.301,112.229,94.91499358,,0,25.806452,,14 / 16,30438,2018-04-16 20:54:49:509
-1.355159,-9.675264,0.241822,-1.300309,-9.717468,0.223295,-0.052391,0.055239,0.023167,-0.009774,0.012217,-0.008552,0,24.3,53.1,2.1,195.6026,82.4383,83.7604,0,1010.1482,38.60799,30.445698,-84.301,112.229,94.91499358,,0,25.806452,,14 / 16,30537,2018-04-16 20:54:49:608
-1.326428,-9.680053,0.203513,-1.29462,-9.71827,0.22143,-0.031852,0.038278,-0.015902,0.003665,0.018326,-0.002443,0,24.4,53,1.8,200.6919,82.2683,80.256,0,1010.1482,38.60799,30.445698,-84.301,112.229,94.91499358,,0,25.806452,,14 / 16,30638,2018-04-16 20:54:49:709
-1.27136,-9.651321,0.201119,-1.293397,-9.718566,0.216045,-0.031852,0.038278,-0.015902,0.008552,0.034208,-0.002443,0,24.6,53,1.8,200.0094,82.3032,80.2941,0,1010.1416,38.54973,30.445698,-84.301,112.229,94.91499358,,0,25.806452,,14 / 16,30738,2018-04-16 20:54:49:809
-1.256994,-9.682447,0.201119,-1.292477,-9.718538,0.222696,0.036243,0.031244,-0.067273,0.001222,0.002443,0.002443,0,24.6,52.9,2.4,200.0094,82.3032,80.2941,0,1010.1416,38.54973,30.445698,-84.301,112.229,94.91499358,,0,25.806452,,14 / 16,30838,2018-04-16 20:54:49:909
-1.30488,-9.696813,0.227456,-1.289012,-9.71897,0.223423,-0.014177,0.053103,-0.028012,0.003665,-0.015882,-0.001222,0,24.7,52.9,2.6,203.1747,82.3144,80.2238,0,1010.147,38.54973,30.445698,-84.301,112.229,94.91499358,,0,25.806452,,14 / 16,30938,2018-04-16 20:54:50:009
-1.316851,-9.713573,0.191542,-1.289012,-9.71897,0.223423,-0.045994,0.041156,-0.002227,0.003665,-0.015882,-0.001222,0,24.7,52.9,2.5,203.1747,82.3144,80.2238,0,1010.147,38.87108,30.445698,-84.301,112.229,94.91499358,,0,25.806452,,14 / 16,31038,2018-04-16 20:54:50:109
-1.268966,-9.72315,0.169994,-1.292309,-9.718459,0.227119,0.023751,-0.004843,-0.060858,0.00733,0.010996,0,0,24.6,52.9,2.4,200.3622,82.3108,80.0322,0,1010.1567,38.87108,30.445698,-84.301,112.229,94.91499358,,0,25.806452,,14 / 16,31138,2018-04-16 20:54:50:209
-1.177983,-9.713573,0.193936,-1.288218,-9.718925,0.230245,0.050311,0.056321,0.01835,0.008552,0.031765,-0.006109,0,24.6,52.9,2.4,200.5683,82.3314,79.8665,0,1010.1567,38.87108,30.445698,-84.301,112.229,94.91499358,,0,25.806452,,14 / 16,31238,2018-04-16 20:54:50:309
-1.369525,-9.569917,0.332804,-1.271917,-9.72113,0.227581,0.050311,0.056321,0.01835,0,0.014661,-0.010996,0,24.6,52.9,2.4,200.5683,82.3314,79.8665,0,1010.1672,39.15866,30.445698,-84.301,112.229,94.91499358,,0,25.806452,,14 / 16,31338,2018-04-16 20:54:50:409
-1.343188,-9.684841,0.155628,-1.27993,-9.719429,0.253855,-0.049748,0.042949,0.009836,0.023213,-0.004887,0.002443,0,24.7,52.9,2.3,200.4785,82.4287,79.8555,0,1010.1672,39.15866,30.445698,-84.301,112.229,94.91499358,,0,25.806452,,14 / 16,31438,2018-04-16 20:54:50:509
-1.357554,-9.656111,0.265765,-1.287345,-9.718457,0.254041,-0.050519,0.014954,-0.064736,0.023213,-0.004887,0.002443,0,24.9,52.9,2.1,202.0319,82.3536,78.7818,0,1010.1731,39.15866,30.445698,-84.301,112.229,94.91499358,,0,25.806452,,14 / 17,31538,2018-04-16 20:54:50:609
-1.300091,-9.675264,0.354353,-1.287345,-9.718457,0.254041,-0.00492,0.041726,0.0848,0.030543,0.019548,0.00733,0,24.6,52.9,2.2,202.006,82.3105,78.8368,0,1010.1731,39.15866,30.445698,-84.301,112.229,94.91499358,,0,25.806452,,14 / 17,31638,2018-04-16 20:54:50:709
-1.225869,-9.670476,0.217879,-1.301333,-9.715624,0.28847,0.079792,0.060118,-0.023428,0.009774,0.012217,0.001222,0,24.6,52.7,2.4,203.9863,82.1881,77.5012,0,1010.1938,39.34555,30.445698,-84.301,112.229,94.91499358,,0,25.806452,,14 / 17,31738,2018-04-16 20:54:50:809
-1.256994,-9.715967,0.26337,-1.294845,-9.71622,0.297438,-0.038852,0.073804,-0.017075,0.029322,-0.010996,0.00733,0,24.6,52.6,2.2,204.5546,82.2139,77.0631,0,1010.1938,39.34555,30.445698,-84.301,112.229,94.91499358,,0,25.806452,,14 / 17,31838,2018-04-16 20:54:50:909
-1.331217,-9.694419,0.222668,-1.304674,-9.714094,0.322757,-0.038852,0.073804,-0.017075,0.029322,-0.010996,0.00733,0,24.6,52.6,2.2,204.5546,82.2139,77.0631,0,1010.2024,39.34555,30.445698,-84.301,112.229,94.91499358,,0,25.806452,,14 / 17,31938,2018-04-16 20:54:51:009
-1.27136,-9.689631,0.277736,-1.310596,-9.712752,0.338902,0.065542,-0.010183,-0.076971,0.024435,-0.001222,0.00733,0,24.7,52.6,2.4,205.9861,82.1228,76.1049,0,1010.2024,38.76587,30.445698,-84.301,112.229,94.91499358,,0,25.806452,,14 / 17,32038,2018-04-16 20:54:51:109
-1.280937,-9.615408,0.387873,-1.305009,-9.712713,0.360587,0.02613,0.097564,0.041826,0.021991,-0.008552,-0.001222,0,24.7,52.6,2.4,206.8904,82.0656,75.5017,0,1010.2087,38.76587,30.445698,-84.301,112.229,94.91499358,,0,25.806452,,14 / 17,32138,2018-04-16 20:54:51:209
-1.415016,-9.672871,0.421392,-1.305009,-9.712713,0.360587,-0.048844,0.070148,0.01977,0.021991,-0.006109,-0.001222,0,24.6,52.5,2.3,208.1871,82.0644,74.554,0,1010.2087,38.76587,30.445698,-84.301,112.229,94.91499358,,0,25.806452,,14 / 17,32238,2018-04-16 20:54:51:309
-1.347977,-9.703996,0.399844,-1.310352,-9.710768,0.392422,-0.041059,0.034065,0.002315,0.018326,0,-0.002443,0,24.5,52.4,2.3,209.7613,81.9821,73.3282,0,1010.2109,40.45717,30.445698,-84.301,112.229,94.91499358,,0,25.806452,,14 / 17,32337,2018-04-16 20:54:51:408
-1.336005,-9.620196,0.457306,-1.316768,-9.708909,0.416236,-0.025639,0.095327,0.030322,0.015882,0.003665,-0.006109,0,24.5,52.4,2.1,211.0548,81.9046,72.458,0,1010.2109,40.45717,30.445698,-84.301,112.229,94.91499358,,0,25.806452,,14 / 17,32437,2018-04-16 20:54:51:508
-1.347977,-9.641745,0.440547,-1.317906,-9.707775,0.438423,-0.025639,0.095327,0.030322,0.015882,0.003665,-0.006109,0,24.5,52.4,2.1,211.0548,81.9046,72.458,0,1010.2014,40.45717,30.445698,-84.301,112.229,94.91499358,,0,25.806452,,14 / 17,32538,2018-04-16 20:54:51:609
-1.345582,-9.653716,0.498009,-1.3211,-9.706587,0.454648,-0.025717,0.053453,0.052001,0.012217,0.018326,-0.001222,0,24.7,52.3,2,212.2867,81.8578,71.5995,0,1010.2014,39.95033,30.445698,-84.301,112.229,94.91499358,,0,25.806452,,14 / 17,32638,2018-04-16 20:54:51:709
-1.333611,-9.689631,0.478855,-1.319015,-9.706758,0.45741,0.0046,0.014338,-0.003877,0.003665,0.026878,-0.00733,0,24.9,52.3,2.2,212.2867,81.8578,71.5995,0,1010.2036,39.95033,30.445698,-84.301,112.229,94.91499358,,0,25.806452,,13 / 17,32738,2018-04-16 20:54:51:809
-1.240234,-9.660899,0.490826,-1.319015,-9.706758,0.45741,0.101003,0.057673,0.010656,0.001222,0.002443,-0.001222,0,25.1,52.3,2.2,213.3311,81.8156,70.8744,0,1010.2036,39.95033,30.445698,-84.301,112.229,94.91499358,,0,25.806452,,13 / 17,32837,2018-04-16 20:54:51:908
-1.268966,-9.699207,0.440547,-1.31574,-9.707032,0.460756,-0.085516,0.051806,-0.005225,-0.009774,0.010996,-0.012217,0,25.1,52.2,2.4,213.5456,81.8273,70.7004,0,1010.1934,39.95033,30.445698,-84.301,112.229,94.91499358,,0,25.806452,,13 / 17,32937,2018-04-16 20:54:52:008
-1.345582,-9.648928,0.454912,-1.310787,-9.707974,0.454978,-0.041171,0.060376,0.009849,-0.015882,0.006109,-0.015882,0,25.1,52.3,2.4,213.5456,81.8273,70.7004,0,1010.1934,42.845,30.445698,-84.301,112.229,94.91499358,,0,25.806452,,13 / 17,33038,2018-04-16 20:54:52:109
-1.412622,-9.562734,0.533923,-1.299519,-9.7104,0.435393,-0.041171,0.060376,0.009849,-0.015882,0.006109,-0.015882,0,24.9,52.2,2.5,215.2527,81.9664,71.477,0,1010.2039,42.845,30.445698,-84.301,112.229,94.91499358,,0,25.806452,,13 / 17,33138,2018-04-16 20:54:52:209
-1.333611,-9.675264,0.292102,-1.307333,-9.709691,0.42733,-0.038648,0.051793,0.030124,-0.012217,0.008552,-0.003665,0,24.8,52.2,2.3,211.7573,81.9376,71.8989,0,1010.2039,42.845,30.445698,-84.301,112.229,94.91499358,,0,25.806452,,13 / 17,33238,2018-04-16 20:54:52:309
-1.259389,-9.718362,0.268159,-1.311496,-9.710029,0.406657,0.101991,0.087104,-0.082784,-0.002443,0.03543,0.003665,0,24.8,52.2,2.3,211.7573,81.9376,71.8989,0,1010.2029,45.77848,30.445698,-84.301,112.229,94.91499358,,0,25.806452,,13 / 17,33338,2018-04-16 20:54:52:409
-1.240234,-9.675264,0.244216,-1.311496,-9.710029,0.406657,0.081327,-0.009219,-0.114249,-0.012217,0.023213,-0.009774,0,24.8,52.2,2.4,210.5582,81.9512,72.7728,0,1010.2029,45.77848,30.445698,-84.301,112.229,94.91499358,,0,25.806452,,13 / 17,33438,2018-04-16 20:54:52:509
-1.280937,-9.711179,0.275342,-1.293916,-9.713821,0.370714,0.007694,0.003752,-0.084802,-0.001222,-0.025656,-0.002443,0,25.1,52.3,2.7,211.6486,82.1112,74.0127,0,1010.1951,45.77848,30.445698,-84.301,112.229,94.91499358,,0,25.806452,,14 / 17,33538,2018-04-16 20:54:52:609
-1.32164,-9.632168,0.351958,-1.287295,-9.715292,0.354843,0.097496,0.08294,-0.013285,-0.004887,-0.012217,0,0,25,52.4,2.4,207.7823,82.1741,74.5891,0,1010.1951,40.09657,30.445698,-84.301,112.229,94.91499358,,0,25.806452,,14 / 17,33638,2018-04-16 20:54:52:709
-1.316851,-9.70639,0.270553,-1.28668,-9.715471,0.352426,0.097496,0.08294,-0.013285,-0.004887,-0.012217,0,0,25,52.4,2.3,207.7823,82.1741,74.5891,0,1010.2051,40.09657,30.445698,-84.301,112.229,94.91499358,,0,25.806452,,14 / 17,33738,2018-04-16 20:54:52:809
-1.391074,-9.634562,0.378295,-1.290862,-9.715052,0.348745,-0.085914,-0.007524,-0.02023,0.001222,-0.017104,-0.002443,0,24.9,52.3,2.2,207.4022,82.1633,74.8817,0,1010.2051,40.09657,30.445698,-84.301,112.229,94.91499358,,0,25.806452,,14 / 17,33838,2018-04-16 20:54:52:909
-1.309668,-9.658504,0.29689,-1.287481,-9.715504,0.348541,0.005744,0.037272,-0.059954,0.004887,-0.006109,-0.010996,0,25,52.5,2.3,207.6116,82.1828,74.8522,0,1010.2061,39.81346,30.445698,-84.301,112.229,94.91499358,,0,25.806452,,14 / 17,33938,2018-04-16 20:54:53:009
-1.347977,-9.687236,0.435758,-1.287481,-9.715504,0.348541,-0.061646,0.028317,0.084422,0,0.002443,-0.013439,0,25,52.5,2.3,207.6116,82.1828,74.8522,0,1010.2061,39.81346,30.445698,-84.301,112.229,94.91499358,,0,25.806452,,14 / 17,34038,2018-04-16 20:54:53:109
-1.30488,-9.617802,0.454912,-1.284293,-9.715804,0.35175,0.03217,0.09506,0.04662,0.003665,0.00733,0.001222,0,25,52.5,2.3,207.8225,82.196,74.6831,0,1010.21,39.81346,30.445698,-84.301,112.229,94.91499358,,0,25.806452,,14 / 17,34138,2018-04-16 20:54:53:209
-1.27136,-9.703996,0.351958,-1.288499,-9.714769,0.364734,0.018064,0.015158,-0.088524,0.002443,0.006109,0.009774,0,25,52.4,2.4,208.3456,82.1516,74.1948,0,1010.21,39.81346,30.445698,-84.301,112.229,94.91499358,,0,25.806452,,14 / 17,34238,2018-04-16 20:54:53:309
-1.125309,-9.682447,0.253793,-1.293251,-9.714397,0.357981,0.018064,0.015158,-0.088524,0.002443,0.006109,0.009774,0,25.1,52.5,2.2,208.1207,82.1353,74.5275,0,1010.2,39.1985,30.445698,-84.301,112.229,94.91499358,,0,25.806452,,14 / 17,34337,2018-04-16 20:54:53:408
-1.343188,-9.672871,0.316044,-1.280785,-9.71661,0.342331,-0.06147,0.043387,-0.03263,-0.009774,0.004887,-0.003665,0,25.1,52.5,2,208.1207,82.1353,74.5275,0,1010.2,39.1985,30.445698,-84.301,112.229,94.91499358,,0,25.806452,,14 / 17,34438,2018-04-16 20:54:53:509
-1.319245,-9.634562,0.29689,-1.29027,-9.715347,0.342479,-0.016772,0.00948,-0.086,0.004887,-0.004887,0.00733,0,25.1,52.4,2.1,207.0426,82.1762,75.1347,0,1010.1875,39.1985,30.445698,-84.301,112.229,94.91499358,,0,25.806452,,14 / 17,34538,2018-04-16 20:54:53:609
-1.261783,-9.670476,0.265765,-1.29027,-9.715347,0.342479,-0.031199,0.024671,-0.052251,0.014661,0.03543,-0.001222,0,25.1,52.4,2.1,207.0426,82.1762,75.1347,0,1010.1875,40.31439,30.445698,-84.301,112.229,94.91499358,,0,25.806452,,14 / 17,34637,2018-04-16 20:54:53:708
-1.211503,-9.684841,0.399844,-1.299525,-9.71404,0.34447,0.106572,0.05806,0.04218,0.004887,0.002443,0.003665,0,24.9,52.3,2.2,207.0924,82.1204,75.1538,0,1010.1797,40.31439,30.445698,-84.301,112.229,94.91499358,,0,25.806452,,14 / 17,34738,2018-04-16 20:54:53:809
-1.312063,-9.656111,0.361536,-1.293984,-9.714638,0.348229,-0.017046,0.05836,0.012211,0.002443,-0.019548,0.001222,0,24.8,52.4,2.4,207.0924,82.1204,75.1538,0,1010.1797,40.31439,30.445698,-84.301,112.229,94.91499358,,0,25.806452,,14 / 17,34838,2018-04-16 20:54:53:909
-1.283331,-9.629773,0.38069,-1.294478,-9.71453,0.349674,-0.017046,0.05836,0.012211,0.002443,-0.019548,0.001222,0,24.9,52.3,2.3,207.3497,82.1463,74.9378,0,1010.176,40.16492,30.445698,-84.301,112.229,94.91499358,,0,25.806452,,14 / 17,34938,2018-04-16 20:54:54:009
-1.441353,-9.658504,0.404632,-1.294399,-9.714469,0.351818,0.013092,0.048948,0.044175,-0.004887,-0.037874,0.001222,0,24.9,52.4,2.1,207.4298,82.1413,74.8836,0,1010.176,40.16492,30.445698,-84.301,112.229,94.91499358,,0,25.806452,,14 / 17,35038,2018-04-16 20:54:54:109
-1.391074,-9.687236,0.351958,-1.306628,-9.712747,0.35395,-0.084322,-0.00267,0.012614,-0.006109,-0.017104,-0.003665,0,25,52.4,2.2,207.5894,82.0655,74.843,0,1010.175,40.16492,30.445698,-84.301,112.229,94.91499358,,0,25.806452,,14 / 17,35138,2018-04-16 20:54:54:209
-1.283331,-9.636956,0.38069,-1.306628,-9.712747,0.35395,0.006893,0.04005,0.028088,-0.018326,-0.029322,-0.002443,0,25,52.4,2.2,207.5894,82.0655,74.843,0,1010.175,39.99774,30.445698,-84.301,112.229,94.91499358,,0,25.806452,,14 / 17,35238,2018-04-16 20:54:54:309
-1.280937,-9.608225,0.301679,-1.305525,-9.713267,0.343557,0.031056,0.104303,-0.03805,-0.004887,-0.001222,0.009774,0,24.9,52.4,2.3,206.9977,82.0876,75.2565,0,1010.1799,39.99774,30.445698,-84.301,112.229,94.91499358,,0,25.806452,,14 / 17,35338,2018-04-16 20:54:54:409
-1.350371,-9.70639,0.158022,-1.312813,-9.712591,0.334668,0.031056,0.104303,-0.03805,-0.004887,-0.001222,0.009774,0,24.8,52.4,2.5,210.0196,82.0876,75.2565,0,1010.1799,39.99774,30.445698,-84.301,112.229,94.91499358,,0,25.806452,,14 / 17,35438,2018-04-16 20:54:54:509
-1.256994,-9.62259,0.299284,-1.299722,-9.715748,0.291645,-0.067917,0.031707,-0.139115,-0.018326,0.047647,-0.013439,0,25,52.4,2.4,204.0087,82.1933,77.3529,0,1010.1912,39.99774,30.445698,-84.301,112.229,94.91499358,,0,25.806452,,13 / 17,35539,2018-04-16 20:54:54:610
-1.28812,-9.696813,0.29689,-1.287207,-9.7177,0.281886,0.003279,0.048636,-0.014625,-0.00733,0.023213,-0.010996,0,25,52.5,2.6,207.241,82.1933,77.3529,0,1010.1912,41.5338,30.445698,-84.301,112.229,94.91499358,,0,25.806452,,13 / 17,35638,2018-04-16 20:54:54:709
-1.278543,-9.646533,0.28013,-1.281881,-9.718755,0.269488,0.019971,0.086124,0.026504,-0.008552,0.008552,-0.003665,0,25,52.6,2.6,206.725,82.2779,77.6478,0,1010.199,41.5338,30.445698,-84.301,112.229,94.91499358,,0,25.806452,,13 / 17,35738,2018-04-16 20:54:54:809
-1.300091,-9.699207,0.208302,-1.281881,-9.718755,0.269488,-0.01504,0.082081,0.03471,-0.008552,0.008552,-0.003665,0,25,52.6,2.6,206.725,82.2779,77.6478,0,1010.199,41.5338,30.445698,-84.301,112.229,94.91499358,,0,25.806452,,13 / 17,35838,2018-04-16 20:54:54:909
-1.218686,-9.682447,0.203513,-1.278218,-9.719366,0.264681,0.057537,0.037389,-0.053379,-0.010996,0.001222,-0.003665,0,24.9,52.6,2.7,206.0132,82.3239,78.1277,0,1010.2146,39.64501,30.445698,-84.301,112.229,94.91499358,,0,25.806452,,13 / 17,35938,2018-04-16 20:54:55:009
-1.261783,-9.70639,0.193936,-1.269872,-9.720858,0.249745,-0.004332,0.042037,-0.032231,-0.012217,-0.001222,-0.009774,0,25.1,52.6,2.6,204.8835,82.4165,78.8737,0,1010.2146,39.64501,30.445698,-84.301,112.229,94.91499358,,0,25.806452,,13 / 17,36038,2018-04-16 20:54:55:109
-1.197137,-9.632168,0.234639,-1.258268,-9.722794,0.232328,-0.004332,0.042037,-0.032231,-0.008552,-0.030543,0,0,25,52.6,2.9,203.8773,82.5028,79.5386,0,1010.2151,39.64501,30.445698,-84.301,112.229,94.91499358,,0,25.806452,,13 / 17,36137,2018-04-16 20:54:55:208
-1.300091,-9.689631,0.21309,-1.258058,-9.722889,0.229972,0.006244,0.002306,-0.008672,-0.018326,-0.0562,0.006109,0,24.8,52.6,3,203.7349,82.5066,79.6408,0,1010.2151,38.93041,30.445698,-84.301,112.229,94.91499358,,0,25.806452,,13 / 17,36238,2018-04-16 20:54:55:309
-1.228263,-9.641745,0.172388,-1.255573,-9.723572,0.213832,-0.029352,0.088722,-0.059505,-0.015882,-0.050091,0,0,24.6,52.6,2.8,203.7349,82.5066,79.6408,0,1010.2188,38.93041,30.445698,-84.301,112.229,94.91499358,,0,25.806452,,13 / 17,36338,2018-04-16 20:54:55:409
-1.252206,-9.711179,0.169994,-1.255573,-9.723572,0.213832,-8.02E-04,0.013131,-0.03421,-0.015882,-0.050091,0,0,24.7,52.7,2.6,203.7349,82.5066,79.6408,0,1010.2188,38.93041,30.445698,-84.301,112.229,94.91499358,,0,25.806452,,13 / 17,36438,2018-04-16 20:54:55:509
-1.199532,-9.648928,0.203513,-1.248813,-9.724908,0.191139,0.022305,0.092995,0.035306,-0.023213,-0.042761,0,0,24.7,52.7,2.6,203.7349,82.5066,79.6408,0,1010.2131,41.17011,30.445698,-84.301,112.229,94.91499358,,0,25.806452,,17-Dec,36538,2018-04-16 20:54:55:609
-1.209109,-9.701602,0.119714,-1.250434,-9.724863,0.182913,0.047086,0.017999,-0.053206,0.003665,-0.050091,0.008552,0,24.7,52.7,2.7,201.3888,82.5982,81.298,0,1010.2131,41.17011,30.445698,-84.301,112.229,94.91499358,,0,25.806452,,17-Dec,36638,2018-04-16 20:54:55:709
-1.285726,-9.668081,0.098165,-1.252581,-9.724556,0.184879,0.047086,0.017999,-0.053206,0.004887,-0.034208,-0.003665,0,24.5,52.6,2.7,200.8772,82.596,81.6778,0,1010.2163,41.17011,30.445698,-84.301,112.229,94.91499358,,0,25.806452,,17-Dec,36738,2018-04-16 20:54:55:809
-1.374314,-9.689631,0.189148,-1.254613,-9.724207,0.189378,-0.042279,0.051629,0.023261,0.010996,-0.003665,-0.004887,0,24.4,52.6,2.6,201.6967,82.5817,81.6038,0,1010.2163,41.17011,30.445698,-84.301,112.229,94.91499358,,0,25.806452,,17-Dec,36838,2018-04-16 20:54:55:909
-1.419805,-9.636956,0.222668,-1.27974,-9.720064,0.229268,-0.15379,0.08549,0.019091,0.048869,0.050091,-0.004887,0,24.4,52.7,2.5,201.9728,82.566,81.4163,0,1010.2124,40.73779,30.445698,-84.301,112.229,94.91499358,,0,25.806452,,17-Dec,36938,2018-04-16 20:54:56:009
-1.3384,-9.754275,0.110137,-1.27974,-9.720064,0.229268,-0.026241,-0.010334,-0.101629,0.048869,0.050091,-0.004887,0,24.6,52.7,2.6,203.6123,82.3816,79.8431,0,1010.2124,40.73779,30.445698,-84.301,112.229,94.91499358,,0,25.806452,,17-Dec,37037,2018-04-16 20:54:56:108
-1.290514,-9.529214,0.146051,-1.277589,-9.720287,0.232421,0.112092,0.10296,-0.094151,0.013439,0.039095,-0.013439,0,24.6,52.7,2.6,203.6123,82.3816,79.8431,0,1010.2058,40.73779,30.445698,-84.301,112.229,94.91499358,,0,25.806452,,17-Dec,37138,2018-04-16 20:54:56:209
-1.115732,-9.780613,0.071828,-1.269106,-9.721185,0.240654,-0.184584,0.073941,0.075902,0.024435,0.015882,-0.006109,0,24.6,52.7,2.5,203.81,82.3908,79.6894,0,1010.2058,40.94083,30.445698,-84.301,112.229,94.91499358,,0,25.806452,,17-Dec,37238,2018-04-16 20:54:56:309
-1.302485,-9.60583,0.41421,-1.25859,-9.722665,0.236475,-0.184584,0.073941,0.075902,0.017104,0.080634,-0.008552,0,24.6,52.7,2.6,204.3387,82.4311,79.2628,0,1010.2046,40.94083,30.445698,-84.301,112.229,94.91499358,,0,25.806452,,17-Dec,37338,2018-04-16 20:54:56:409
-1.525153,-9.70639,0.258582,-1.259203,-9.721578,0.274639,-0.164981,0.014009,-0.01809,0.00733,0.053756,0,0,24.6,52.5,2.4,201.0834,82.4965,79.3588,0,1010.2046,40.94083,30.445698,-84.301,112.229,94.91499358,,0,25.806452,,17-Dec,37438,2018-04-16 20:54:56:509
-1.27136,-9.493299,0.306467,-1.284193,-9.717374,0.305832,-6.00E-06,0.226581,0.027474,0.00733,0.053756,0,0,24.6,52.6,2.4,203.4005,82.4482,77.6962,0,1010.1943,41.50438,30.445698,-84.301,112.229,94.91499358,,0,25.806452,,13 / 17,37538,2018-04-16 20:54:56:609
-0.902642,-9.79019,0.284919,-1.284193,-9.717374,0.305832,0.380561,0.049479,0.068863,-0.003665,-0.00733,-0.002443,0,24.6,52.5,2.7,208.1548,82.2637,76.6045,0,1010.1943,41.50438,30.445698,-84.301,112.229,94.91499358,,0,25.806452,,13 / 17,37638,2018-04-16 20:54:56:709
-1.357554,-9.608225,0.433364,-1.250974,-9.721438,0.314245,-0.235125,0.07939,0.010015,0.019548,-0.021991,0.009774,0,24.6,52.5,2.7,208.1548,82.2637,76.6045,0,1010.1895,41.50438,30.445698,-84.301,112.229,94.91499358,,0,25.806452,,13 / 17,37738,2018-04-16 20:54:56:809
-1.340794,-9.696813,0.249005,-1.267202,-9.718389,0.342441,0.113657,-0.041351,-0.104609,0.001222,0.002443,-0.002443,0,24.7,52.4,2.6,208.6523,82.4421,75.899,0,1010.1895,39.95447,30.445698,-84.301,112.229,94.91499358,,0,25.806452,,13 / 17,37837,2018-04-16 20:54:56:908
-1.46769,-9.615408,0.483644,-1.264859,-9.719067,0.331474,0.113657,-0.041351,-0.104609,0.001222,0.002443,-0.002443,0,24.8,52.3,2.2,207.2105,82.3076,74.8779,0,1010.1855,39.95447,30.445698,-84.301,112.229,94.91499358,,0,25.806452,,13 / 17,37938,2018-04-16 20:54:57:009
-1.32164,-9.694419,0.316044,-1.279104,-9.716687,0.346274,-0.226791,0.147047,0.113086,0.006109,-0.004887,0.001222,0,24.9,52.3,2.1,207.2105,82.3076,74.8779,0,1010.1855,39.95447,30.445698,-84.301,112.229,94.91499358,,0,25.806452,,13 / 17,38038,2018-04-16 20:54:57:109
-1.2546,-9.665688,0.318439,-1.292339,-9.7148,0.350093,0.024493,-0.025098,-0.076592,0.002443,0.029322,0.002443,0,24.9,52.2,2.3,207.3452,82.234,74.8522,0,1010.1755,39.95447,30.445698,-84.301,112.229,94.91499358,,0,25.806452,,13 / 17,38138,2018-04-16 20:54:57:209
-1.264177,-9.675264,0.34717,-1.292339,-9.7148,0.350093,0.013371,0.037692,-7.21E-04,0,0.006109,0.001222,0,25,52.2,2.6,210.4775,82.1528,74.8425,0,1010.1755,39.79736,30.445698,-84.301,112.229,94.91499358,,0,25.806452,,13 / 17,38238,2018-04-16 20:54:57:309
-1.28812,-9.680053,0.328016,-1.288934,-9.71539,0.34626,0.00162,0.035321,-0.015425,-0.004887,0.013439,0.001222,0,25,52.2,2.8,210.4775,82.1528,74.8425,0,1010.1799,39.79736,30.445698,-84.301,112.229,94.91499358,,0,25.806452,,13 / 17,38338,2018-04-16 20:54:57:409
-1.216291,-9.627379,0.311256,-1.289992,-9.715541,0.338177,0.058544,0.069224,-0.035631,0.003665,0,0.002443,0,24.9,52.2,2.9,209.8055,82.1843,75.3102,0,1010.1799,39.79736,30.445698,-84.301,112.229,94.91499358,,0,25.806452,,13 / 17,38438,2018-04-16 20:54:57:509
-1.312063,-9.653716,0.318439,-1.287084,-9.716074,0.333473,0.058544,0.069224,-0.035631,0.003665,0,0.002443,0,24.9,52.2,2.9,209.8055,82.1843,75.3102,0,1010.1831,39.41669,30.445698,-84.301,112.229,94.91499358,,0,25.806452,,13 / 17,38537,2018-04-16 20:54:57:608
-1.312063,-9.656111,0.316044,-1.284944,-9.716519,0.328958,0.010317,0.060129,-0.036763,-0.002443,-0.012217,-0.003665,0,24.9,52.2,3,209.5513,82.2078,75.4746,0,1010.1831,39.41669,30.445698,-84.301,112.229,94.91499358,,0,25.806452,,13 / 17,38638,2018-04-16 20:54:57:709
-1.343188,-9.677659,0.33041,-1.285061,-9.716648,0.324664,-3.57E-04,0.041294,0.021055,-0.004887,-0.013439,-0.002443,0,24.9,52.2,3,209.3025,82.2267,75.6402,0,1010.198,39.41669,30.445698,-84.301,112.229,94.91499358,,0,25.806452,,13 / 17,38738,2018-04-16 20:54:57:809
-1.32164,-9.648928,0.325621,-1.285061,-9.716648,0.324664,-0.035414,0.06763,0.002706,-0.006109,-0.019548,-0.002443,0,25.1,52.3,3.2,209.0523,82.2323,75.8212,0,1010.198,39.56386,30.445698,-84.301,112.229,94.91499358,,0,25.806452,,13 / 17,38838,2018-04-16 20:54:57:909
-1.347977,-9.677659,0.277736,-1.288585,-9.716245,0.322627,-0.004521,0.052765,0.020544,-0.00733,-0.006109,-0.001222,0,25.1,52.3,2.8,208.913,82.2151,75.9436,0,1010.1926,39.56386,30.445698,-84.301,112.229,94.91499358,,0,25.806452,,13 / 17,38938,2018-04-16 20:54:58:009
-1.314457,-9.672871,0.277736,-1.291487,-9.716081,0.315899,-0.013387,0.03371,0.023961,-0.003665,-0.006109,-0.002443,0,25,52.3,2.6,208.5051,82.208,76.2553,0,1010.1926,39.56386,30.445698,-84.301,112.229,94.91499358,,0,25.806452,,13 / 17,39038,2018-04-16 20:54:58:109
-1.319245,-9.689631,0.270553,-1.293283,-9.715941,0.312612,-0.013387,0.03371,0.023961,-0.003665,-0.006109,-0.002443,0,25,52.3,2.6,208.5051,82.208,76.2553,0,1010.1963,40.55084,30.445698,-84.301,112.229,94.91499358,,0,25.806452,,13 / 17,39137,2018-04-16 20:54:58:208
-1.259389,-9.632168,0.299284,-1.296135,-9.715663,0.309995,0.036148,0.083533,-0.01163,-0.004887,0.002443,-0.003665,0,25,52.2,2.6,208.3038,82.2023,76.4111,0,1010.1963,40.55084,30.445698,-84.301,112.229,94.91499358,,0,25.806452,,13 / 17,39238,2018-04-16 20:54:58:309
-1.302485,-9.670476,0.335198,-1.296634,-9.715685,0.307052,-0.013723,0.057233,-0.013597,-0.004887,0,-0.003665,0,24.8,52.2,2.7,208.1358,82.1895,76.5493,0,1010.1938,40.55084,30.445698,-84.301,112.229,94.91499358,,0,25.806452,,13 / 17,39338,2018-04-16 20:54:58:409
-1.261783,-9.708784,0.210696,-1.296634,-9.715685,0.307052,0.068021,-0.005045,-0.068514,0.004887,0.015882,-0.006109,0,24.8,52.2,2.9,207.962,82.1907,76.6774,0,1010.1938,40.55084,30.445698,-84.301,112.229,94.91499358,,0,25.806452,,13 / 17,39438,2018-04-16 20:54:58:509
-1.309668,-9.651321,0.308861,-1.290152,-9.716697,0.302467,-0.026878,0.066695,0.017984,-0.010996,-0.00733,-0.009774,0,24.8,52.1,3,207.7295,82.2341,76.8057,0,1010.1931,39.34595,30.445698,-84.301,112.229,94.91499358,,0,25.806452,,14 / 17,39538,2018-04-16 20:54:58:609
-1.309668,-9.682447,0.272947,-1.277866,-9.71882,0.286063,-0.009708,0.015112,-0.032707,-0.00733,-0.001222,-0.00733,0,24.7,52.1,2.8,206.8313,82.3263,77.3818,0,1010.1931,39.34595,30.445698,-84.301,112.229,94.91499358,,0,25.806452,,14 / 17,39638,2018-04-16 20:54:58:709
-1.261783,-9.682447,0.275342,-1.272782,-9.719707,0.278111,-0.009708,0.015112,-0.032707,-0.00733,-0.001222,-0.00733,0,24.7,52.1,2.8,206.8313,82.3263,77.3818,0,1010.1865,39.34595,30.445698,-84.301,112.229,94.91499358,,0,25.806452,,14 / 17,39738,2018-04-16 20:54:58:809
-1.312063,-9.684841,0.237033,-1.270632,-9.720221,0.269716,-0.080497,0.061728,0.014639,-0.003665,0,-0.004887,0,24.8,52.2,2.8,206.3872,82.3657,77.6742,0,1010.1865,40.54599,30.445698,-84.301,112.229,94.91499358,,0,25.806452,,14 / 17,39838,2018-04-16 20:54:58:909
-1.23784,-9.692024,0.198725,-1.268707,-9.720727,0.260476,0.033093,0.028262,-0.067309,-0.002443,0.012217,-0.006109,0,24.7,52.2,2.7,205.8996,82.3885,78.0158,0,1010.177,40.54599,30.445698,-84.301,112.229,94.91499358,,0,25.806452,,14 / 17,39938,2018-04-16 20:54:59:009
-1.197137,-9.644139,0.208302,-1.268707,-9.720727,0.260476,0.111462,0.014486,-0.10807,0.002443,-0.00733,-0.001222,0,24.8,52.3,2.5,205.3585,82.4108,78.3979,0,1010.177,40.54599,30.445698,-84.301,112.229,94.91499358,,0,25.806452,,14 / 17,40038,2018-04-16 20:54:59:109
-1.194743,-9.696813,0.186753,-1.261472,-9.721853,0.253786,0.05987,0.038233,-0.008221,-0.017104,-0.021991,-0.00733,0,24.8,52.3,2.7,204.9919,82.4604,78.625,0,1010.1675,42.57021,30.445698,-84.301,112.229,94.91499358,,0,25.806452,,14 / 17,40138,2018-04-16 20:54:59:209
-1.300091,-9.672871,0.265765,-1.244435,-9.724625,0.230498,-0.094439,0.090898,0.044965,-0.012217,-0.029322,-0.004887,0,24.7,52.4,3,203.6614,82.585,79.5064,0,1010.1675,42.57021,30.445698,-84.301,112.229,94.91499358,,0,25.806452,,14 / 17,40238,2018-04-16 20:54:59:309
-1.331217,-9.668081,0.244216,-1.242166,-9.725055,0.224203,-0.094439,0.090898,0.044965,-0.012217,-0.029322,-0.004887,0,24.7,52.4,3,203.6614,82.585,79.5064,0,1010.1729,42.57021,30.445698,-84.301,112.229,94.91499358,,0,25.806452,,14 / 17,40338,2018-04-16 20:54:59:409
-1.28812,-9.701602,0.237033,-1.245892,-9.724643,0.22183,-0.040628,0.032651,-0.014144,-0.009774,-0.020769,-0.003665,0,24.7,52.5,3,203.4445,82.6048,79.7686,0,1010.1729,39.22861,30.445698,-84.301,112.229,94.91499358,,0,25.806452,,14 / 17,40438,2018-04-16 20:54:59:509
-1.249811,-9.663293,0.222668,-1.247715,-9.724505,0.21727,-0.031965,0.06854,0.021738,-0.010996,-0.017104,-0.003665,0,24.5,52.4,2.7,203.1281,82.5856,79.9043,0,1010.1724,39.22861,30.445698,-84.301,112.229,94.91499358,,0,25.806452,,14 / 17,40538,2018-04-16 20:54:59:609
-1.223474,-9.677659,0.184359,-1.247715,-9.724505,0.21727,-0.059617,0.027699,-0.030796,-0.003665,-0.015882,-0.003665,0,24.4,52.4,2.9,203.5595,82.5797,80.1219,0,1010.1724,39.22861,30.445698,-84.301,112.229,94.91499358,,0,25.806452,,14 / 17,40638,2018-04-16 20:54:59:709
-1.225869,-9.680053,0.181965,-1.249344,-9.724383,0.213595,0.018152,0.045126,-0.025844,-0.009774,-0.024435,-0.018326,0,24.4,52.4,2.6,203.3273,82.574,80.2982,0,1010.1836,39.22861,30.445698,-84.301,112.229,94.91499358,,0,25.806452,,14 / 17,40737,2018-04-16 20:54:59:808
-1.218686,-9.629773,0.265765,-1.233504,-9.726644,0.20215,0.021528,0.073703,0.034911,-0.001222,-0.004887,0.003665,0,24.4,52.3,2.6,202.6682,82.6771,80.6929,0,1010.1836,39.55594,30.445698,-84.301,112.229,94.91499358,,0,25.806452,,14 / 17,40838,2018-04-16 20:54:59:909
-1.209109,-9.715967,0.155628,-1.250293,-9.72462,0.196572,0.021528,0.073703,0.034911,-0.001222,-0.004887,0.003665,0,24.4,52.3,2.6,202.6682,82.6771,80.6929,0,1010.1853,39.55594,30.445698,-84.301,112.229,94.91499358,,0,25.806452,,14 / 17,40940,2018-04-16 20:55:00:011
-1.235446,-9.653716,0.134079,-1.244729,-9.72559,0.183273,0.081078,-0.003151,-0.128784,-0.003665,0.026878,0,0,24.3,52.2,2.7,202.2721,82.5847,81.0651,0,1010.1853,39.55594,30.445698,-84.301,112.229,94.91499358,,0,25.806452,,14 / 17,41038,2018-04-16 20:55:00:109
-1.223474,-9.653716,0.196331,-1.236991,-9.726531,0.185651,0.014848,0.072724,0.014639,0.008552,0.013439,-0.004887,0,24.4,52.3,2.9,201.4607,82.6289,81.624,0,1010.1941,41.58728,30.445698,-84.301,112.229,94.91499358,,0,25.806452,,14 / 17,41138,2018-04-16 20:55:00:209
-1.268966,-9.675264,0.134079,-1.236991,-9.726531,0.185651,-0.028988,0.051458,-0.067628,0.012217,0.052534,-0.003665,0,24.3,52.3,3.1,201.6286,82.6719,81.4646,0,1010.1941,41.58728,30.445698,-84.301,112.229,94.91499358,,0,25.806452,,14 / 17,41238,2018-04-16 20:55:00:309
-1.127703,-9.70639,0.122108,-1.234823,-9.726775,0.187314,0.04212,0.047664,-0.123368,0.010996,0.045204,-0.006109,0,24.4,52.3,3.3,201.7382,82.6831,81.3744,0,1010.2112,41.58728,30.445698,-84.301,112.229,94.91499358,,0,25.806452,,14 / 17,41338,2018-04-16 20:55:00:409
-1.118126,-9.680053,0.124502,-1.221002,-9.728597,0.183207,-0.01054,0.01835,-0.08882,0.013439,0.006109,-0.008552,0,24.4,52.2,3.4,201.7382,82.6831,81.3744,0,1010.2112,40.56665,30.445698,-84.301,112.229,94.91499358,,0,25.806452,,14 / 17,41438,2018-04-16 20:55:00:509
-1.280937,-9.668081,0.124502,-1.210165,-9.729879,0.187464,-0.01054,0.01835,-0.08882,0.013439,0.006109,-0.008552,0,24.6,52.2,3.8,204.077,82.8265,81.1944,0,1010.2107,40.56665,30.445698,-84.301,112.229,94.91499358,,0,25.806452,,14 / 16,41538,2018-04-16 20:55:00:609
-1.177983,-9.656111,0.208302,-1.209919,-9.729585,0.203384,0.032975,0.073532,0.013932,0.020769,0.034208,-0.003665,0,24.6,52.2,3.8,204.077,82.8265,81.1944,0,1010.2107,40.56665,30.445698,-84.301,112.229,94.91499358,,0,25.806452,,14 / 16,41637,2018-04-16 20:55:00:708
-1.113338,-9.727939,0.196331,-1.205565,-9.729843,0.216023,0.022258,0.068915,0.008253,0.013439,-0.003665,-0.002443,0,24.6,52.2,3.7,205.0633,82.813,80.4579,0,1010.2065,39.35202,30.445698,-84.301,112.229,94.91499358,,0,25.806452,,14 / 16,41738,2018-04-16 20:55:00:809
-1.252206,-9.689631,0.205908,-1.205565,-9.729843,0.216023,-0.073881,0.052161,0.053191,0.00733,0.001222,0,0,24.6,52.3,3.5,205.8587,82.8255,79.8411,0,1010.2065,39.35202,30.445698,-84.301,112.229,94.91499358,,0,25.806452,,14 / 16,41838,2018-04-16 20:55:00:909
-1.247417,-9.677659,0.268159,-1.209335,-9.729049,0.230353,-0.041554,0.045792,-0.019464,0.00733,0.001222,0,0,24.5,52.2,3.6,206.7266,82.7883,79.2155,0,1010.2058,39.35202,30.445698,-84.301,112.229,94.91499358,,0,25.806452,,14 / 16,41937,2018-04-16 20:55:01:008
-1.247417,-9.668081,0.251399,-1.216924,-9.727602,0.250958,-0.023479,0.0495,-0.050985,0.010996,0.003665,0.001222,0,24.6,52.2,3.6,206.7266,82.7883,79.2155,0,1010.2058,39.35202,30.445698,-84.301,112.229,94.91499358,,0,25.806452,,14 / 16,42038,2018-04-16 20:55:01:109
-1.209109,-9.663293,0.234639,-1.221569,-9.726799,0.258942,-0.023479,0.0495,-0.050985,0.002443,-0.001222,0.001222,0,24.6,52.1,3.6,208.4164,82.6845,78.0319,0,1010.2002,39.469,30.445698,-84.301,112.229,94.91499358,,0,25.806452,,14 / 16,42138,2018-04-16 20:55:01:209
-1.230657,-9.687236,0.284919,-1.225108,-9.726354,0.259318,-0.061067,0.049077,0.028864,0.010996,0.004887,0.006109,0,24.7,52.1,3.3,205.5073,82.6636,78.0486,0,1010.2002,39.469,30.445698,-84.301,112.229,94.91499358,,0,25.806452,,14 / 16,42237,2018-04-16 20:55:01:308
-1.223474,-9.663293,0.222668,-1.229737,-9.725691,0.261978,-0.015305,0.026843,-0.046806,0.003665,0.00733,0.002443,0,24.7,52,3.3,205.6442,82.6337,77.9737,0,1010.2092,39.469,30.445698,-84.301,112.229,94.91499358,,0,25.806452,,14 / 16,42338,2018-04-16 20:55:01:409
-1.280937,-9.680053,0.244216,-1.229737,-9.725691,0.261978,-0.015604,0.042977,-0.018211,0.003665,0.00733,0.002443,0,24.7,52,3.3,205.6442,82.6337,77.9737,0,1010.2092,39.10231,30.445698,-84.301,112.229,94.91499358,,0,25.806452,,14 / 16,42438,2018-04-16 20:55:01:509
-1.28812,-9.670476,0.275342,-1.233594,-9.725189,0.262618,-0.051784,0.054359,0.012515,0.004887,-0.002443,0.002443,0,24.7,52,3.2,205.6442,82.6337,77.9737,0,1010.2144,39.10231,30.445698,-84.301,112.229,94.91499358,,0,25.806452,,14 / 16,42538,2018-04-16 20:55:01:609
-1.278543,-9.680053,0.268159,-1.240296,-9.724304,0.263844,-0.036916,0.036572,0.013072,0.009774,0.001222,0.001222,0,24.8,52,3.3,205.6624,82.6107,77.9818,0,1010.2144,39.10231,30.445698,-84.301,112.229,94.91499358,,0,25.806452,,14 / 16,42638,2018-04-16 20:55:01:709
-1.290514,-9.687236,0.272947,-1.247308,-9.723277,0.268484,-0.036916,0.036572,0.013072,0.008552,0.001222,0.003665,0,24.7,52,3.2,205.7012,82.5705,77.9907,0,1010.2021,39.96808,30.445698,-84.301,112.229,94.91499358,,0,25.806452,,14 / 16,42738,2018-04-16 20:55:01:809
-1.30488,-9.684841,0.306467,-1.253071,-9.722246,0.279235,-0.008003,0.047352,-0.029302,0.00733,-0.002443,0.001222,0,24.5,51.9,3.1,205.9439,82.5244,77.8524,0,1010.2021,39.96808,30.445698,-84.301,112.229,94.91499358,,0,25.806452,,14 / 16,42838,2018-04-16 20:55:01:909
-1.268966,-9.636956,0.320833,-1.255832,-9.721446,0.293989,-0.01294,0.084749,0.036474,0.013439,-0.013439,-0.002443,0,24.6,51.9,3.1,206.5575,82.4777,77.4374,0,1010.1987,39.96808,30.445698,-84.301,112.229,94.91499358,,0,25.806452,,14 / 16,42938,2018-04-16 20:55:02:009
-1.266571,-9.708784,0.270553,-1.255832,-9.721446,0.293989,-0.061948,0.014968,-0.027538,0.013439,-0.013439,-0.002443,0,24.6,51.9,3.1,206.5575,82.4777,77.4374,0,1010.1987,39.96808,30.445698,-84.301,112.229,94.91499358,,0,25.806452,,14 / 16,43038,2018-04-16 20:55:02:109
-1.20432,-9.613013,0.371113,-1.256564,-9.721132,0.301143,0.062552,0.081462,0.041291,0.003665,-0.008552,0.001222,0,24.6,51.9,2.9,207.4214,82.4425,76.8244,0,1010.2004,39.51495,30.445698,-84.301,112.229,94.91499358,,0,25.806452,,14 / 16,43138,2018-04-16 20:55:02:209
-1.285726,-9.699207,0.272947,-1.256481,-9.720632,0.317446,-0.021962,0.024035,0.020429,0.00733,-0.010996,-0.002443,0,25,52,1.9,204.8426,82.4286,76.5229,0,1010.2004,39.51495,30.445698,-84.301,112.229,94.91499358,,0,25.806452,,14 / 16,43238,2018-04-16 20:55:02:309
-1.268966,-9.663293,0.311256,-1.251886,-9.721048,0.322466,-0.021962,0.024035,0.020429,0.009774,0,-0.006109,0,25.5,51.9,0.8,202.6575,82.425,75.5555,0,1010.2031,39.51495,30.445698,-84.301,112.229,94.91499358,,0,25.806452,,14 / 16,43337,2018-04-16 20:55:02:408
-1.216291,-9.646533,0.304073,-1.251208,-9.720796,0.332647,-0.012366,0.012078,0.004389,0.002443,-0.001222,-0.003665,0,26.2,51.9,0,202.6575,82.425,75.5555,0,1010.2031,39.95044,30.445698,-84.301,112.229,94.91499358,,0,25.806452,,14 / 16,43437,2018-04-16 20:55:02:508
-1.28812,-9.665688,0.361536,-1.248372,-9.720759,0.344123,-0.011138,0.076562,0.031393,0.002443,-0.001222,-0.003665,0,26.2,51.9,-0.2,200.3176,82.4136,75.1117,0,1010.1892,39.95044,30.445698,-84.301,112.229,94.91499358,,0,25.806452,,14 / 16,43538,2018-04-16 20:55:02:609
-1.240234,-9.660899,0.299284,-1.248372,-9.720759,0.344123,-0.032534,0.060633,-0.022457,0,-0.021991,-0.015882,0,26.2,52,-0.5,201.0217,82.4121,74.5887,0,1010.1892,39.95044,30.445698,-84.301,112.229,94.91499358,,0,25.806452,,14 / 16,43638,2018-04-16 20:55:02:709
-1.369525,-9.613013,0.495615,-1.239782,-9.721641,0.350153,-0.115688,0.008665,0.011461,0.009774,-0.040317,-0.001222,0,26.2,52,-0.5,201.0217,82.4121,74.5887,0,1010.1733,39.00923,30.445698,-84.301,112.229,94.91499358,,0,25.806452,,14 / 16,43738,2018-04-16 20:55:02:809
-1.223474,-9.670476,0.411815,-1.254901,-9.718843,0.373311,0.0279,0.048889,0.040264,-0.003665,-0.0281,-0.008552,0,26.1,52.1,-0.4,201.4639,82.4513,74.2287,0,1010.1733,39.00923,30.445698,-84.301,112.229,94.91499358,,0,25.806452,,14 / 16,43838,2018-04-16 20:55:02:909
-1.280937,-9.670476,0.392661,-1.246165,-9.719957,0.373375,0.0279,0.048889,0.040264,-0.003665,-0.0281,-0.008552,0,26.1,52.2,-0.6,199.6901,82.3277,73.4332,0,1010.1799,39.00923,30.445698,-84.301,112.229,94.91499358,,0,25.806452,,14 / 16,43938,2018-04-16 20:55:03:009
-1.283331,-9.670476,0.387873,-1.238507,-9.721143,0.368211,-0.024126,0.045197,0.005789,-0.010996,-0.012217,-0.009774,0,26,52.1,-0.6,199.7942,82.377,73.3208,0,1010.1799,38.99028,30.445698,-84.301,112.229,94.91499358,,0,25.806452,,14 / 16,44038,2018-04-16 20:55:03:109
-1.245023,-9.680053,0.361536,-1.235099,-9.721956,0.35781,-0.022737,0.007991,0.036567,-0.010996,0.018326,-0.008552,0,25.8,52.2,-0.2,202.5391,82.4289,73.4427,0,1010.1814,38.99028,30.445698,-84.301,112.229,94.91499358,,0,25.806452,,14 / 16,44138,2018-04-16 20:55:03:209
-1.235446,-9.713573,0.339987,-1.235099,-9.721956,0.35781,-0.002452,0.008954,-0.009592,-0.021991,0.025656,-0.008552,0,25.3,52.4,1.2,205.3497,82.4654,73.8436,0,1010.1814,38.99028,30.445698,-84.301,112.229,94.91499358,,0,25.806452,,14 / 16,44238,2018-04-16 20:55:03:309
-1.264177,-9.665688,0.289707,-1.232834,-9.723002,0.336485,0.013347,0.02427,-0.043133,-0.021991,0.034208,-0.006109,0,25.3,52.4,1.2,205.3497,82.4654,73.8436,0,1010.1831,38.99028,30.445698,-84.301,112.229,94.91499358,,0,25.806452,,14 / 16,44337,2018-04-16 20:55:03:408
-1.192349,-9.718362,0.134079,-1.229628,-9.724464,0.304593,0.069104,-0.001528,-0.158339,-0.057421,-0.001222,-0.012217,0,24.9,52.5,2.7,210.2925,82.5123,74.7338,0,1010.1831,39.99478,30.445698,-84.301,112.229,94.91499358,,0,25.806452,,14 / 16,44437,2018-04-16 20:55:03:508
-1.144463,-9.703996,0.107742,-1.210165,-9.729165,0.2209,0.069104,-0.001528,-0.158339,-0.057421,-0.001222,-0.012217,0,24.8,52.7,3.2,208.402,82.5779,76.0872,0,1010.1809,39.99478,30.445698,-84.301,112.229,94.91499358,,0,25.806452,,14 / 17,44538,2018-04-16 20:55:03:609
